"Time (ms)","Accelerometer X (mGal)","Accelerometer Y (mGal)","Accelerometer Z (mGal)","Gyro X","Gyro Y","Gyro Z","Magnetic X","Magnetic Y","Magnetic Z","Locomotion"
1592,"-0.8814697265625","0.1212158203125","-0.454345703125","11.474608421325684","-7.690429210662842","-3.295898199081421","-14","18","-25","2"
1623,"-0.8900146484375","0.101318359375","-0.43701171875","20.080564498901367","-8.48388671875","-2.25830078125","-12","16","-24","2"
1654,"-0.89990234375","0.0653076171875","-0.4530029296875","17.333984375","-7.446288585662842","-0.9765624403953552","-12","16","-24","2"
1685,"-0.8958740234375","0.0963134765625","-0.4456787109375","7.019042491912842","-2.624511480331421","1.15966796875","-12","16","-24","2"
1717,"-0.8885498046875","0.122314453125","-0.44580078125","7.263183116912842","-0.9155272841453552","1.220703125","-12","16","-24","2"
1748,"-0.880615234375","0.111083984375","-0.4683837890625","15.014647483825684","-1.6479490995407104","4.39453125","-14","18","-27","2"
1779,"-0.8861083984375","0.11083984375","-0.4744873046875","12.573241233825684","0.6103515625","5.981444835662842","-14","18","-27","2"
1813,"-0.8662109375","0.1329345703125","-0.4781494140625","11.779784202575684","-0.4882812201976776","5.493163585662842","-15","14","-28","2"
1849,"-0.88525390625","0.1119384765625","-0.5142822265625","13.183592796325684","0.1831054538488388","9.21630859375","-15","14","-28","2"
1885,"-0.8828125","0.108642578125","-0.517822265625","3.051757574081421","3.601073980331421","8.23974609375","-15","14","-28","2"
1916,"-0.87451171875","0.1497802734375","-0.531982421875","-4.0283203125","2.13623046875","5.065917491912842","-15","14","-28","2"
1947,"-0.876220703125","0.1656494140625","-0.538330078125","-0.1831054538488388","0","5.126952648162842","-13","14","-25","2"
1978,"-0.860107421875","0.140380859375","-0.5322265625","3.234863042831421","-1.9531248807907104","3.906249761581421","-13","14","-25","2"
2009,"-0.868896484375","0.1300048828125","-0.530517578125","0.1220703050494194","-4.150390625","2.807616949081421","-13","14","-25","2"
2040,"-0.8719482421875","0.122802734375","-0.5208740234375","-2.01416015625","-3.784179449081421","2.38037109375","-11","12","-25","2"
2074,"-0.8660888671875","0.1209716796875","-0.51513671875","-3.234863042831421","-3.540038824081421","4.150390625","-11","12","-25","2"
2105,"-0.868896484375","0.09912109375","-0.50927734375","-3.723144292831421","-1.9531248807907104","5.187987804412842","-11","12","-25","2"
2136,"-0.8624267578125","0.093994140625","-0.512939453125","-10.314940452575684","0.4882812201976776","5.371093273162842","-16","16","-26","2"
2167,"-0.848876953125","0.104736328125","-0.509765625","-11.352538108825684","2.0751953125","5.249022960662842","-16","16","-26","2"
2198,"-0.8438720703125","0.103515625","-0.5162353515625","-7.568358898162842","1.9531248807907104","6.225585460662842","-16","16","-26","2"
2234,"-0.8162841796875","0.098876953125","-0.50390625","-4.57763671875","2.929687261581421","7.385253429412842","-16","23","-29","2"
2265,"-0.8182373046875","0.078125","-0.5001220703125","-3.723144292831421","2.929687261581421","6.408690929412842","-16","23","-29","2"
2299,"-0.8106689453125","0.075927734375","-0.4979248046875","-3.967284917831421","4.45556640625","4.57763671875","-16","23","-29","2"
2330,"-0.8072509765625","0.057373046875","-0.49267578125","-3.662109136581421","7.507323741912842","3.845214605331421","-15","21","-29","2"
2361,"-0.79150390625","0.05029296875","-0.4989013671875","-5.187987804412842","8.23974609375","2.685546636581421","-15","21","-29","2"
2395,"-0.80419921875","0.067138671875","-0.5032958984375","-1.5869139432907104","9.521484375","3.417968511581421","-15","21","-29","2"
2431,"-0.80419921875","0.05224609375","-0.5003662109375","3.051757574081421","8.544921875","1.5869139432907104","-16","23","-29","2"
2462,"-0.8309326171875","0.0538330078125","-0.50439453125","3.906249761581421","8.72802734375","-0.2441406100988388","-16","23","-29","2"
2497,"-0.8077392578125","0.041748046875","-0.4931640625","8.72802734375","11.352538108825684","-1.6479490995407104","-16","23","-29","2"
2528,"-0.7869873046875","0.02490234375","-0.491943359375","11.169432640075684","10.803221702575684","-3.356933355331421","-14","15","-25","2"
2559,"-0.799072265625","0.03173828125","-0.5023193359375","10.681151390075684","10.864256858825684","-3.784179449081421","-14","15","-25","2"
2590,"-0.8382568359375","0.0748291015625","-0.5023193359375","10.375975608825684","10.253905296325684","-5.126952648162842","-14","15","-25","2"
2623,"-0.8876953125","0.1143798828125","-0.5029296875","22.155759811401367","5.126952648162842","-5.920409679412842","-17","18","-25","2"
2654,"-0.9830322265625","0.12060546875","-0.5045166015625","30.883787155151367","2.197265625","-6.408690929412842","-17","18","-25","2"
2685,"-1.018798828125","0.1270751953125","-0.5042724609375","31.555173873901367","2.50244140625","-5.249022960662842","-17","18","-25","2"
2720,"-1.0048828125","0.103271484375","-0.4835205078125","31.799314498901367","0.6713866591453552","-5.371093273162842","-14","15","-17","2"
2754,"-0.9759521484375","0.10400390625","-0.46728515625","28.442380905151367","0.1831054538488388","-8.30078125","-14","15","-17","2"
2785,"-0.8956298828125","0.091064453125","-0.443115234375","34.72900390625","1.9531248807907104","-2.685546636581421","-14","15","-17","2"
2816,"-0.8245849609375","0.031982421875","-0.4022216796875","32.3486328125","-2.0751953125","0.30517578125","-14","15","-17","2"
2847,"-0.8641357421875","0.0919189453125","-0.3909912109375","22.644041061401367","-4.2724609375","3.845214605331421","-11","19","-21","2"
2878,"-0.908203125","0.1473388671875","-0.36279296875","24.780271530151367","-6.225585460662842","7.812499523162842","-11","19","-21","2"
2909,"-0.931640625","0.18798828125","-0.34912109375","31.433103561401367","-7.629394054412842","9.6435546875","-11","19","-21","2"
2940,"-0.894287109375","0.1915283203125","-0.3291015625","44.250484466552734","-3.784179449081421","15.197752952575684","-12","24","-27","2"
2971,"-0.82666015625","0.136474609375","-0.3212890625","42.297359466552734","-0.6103515625","16.357421875","-12","24","-27","2"
3002,"-0.8157958984375","0.14501953125","-0.32373046875","31.066892623901367","-1.2817381620407104","12.145995140075684","-12","24","-27","2"
3033,"-0.843994140625","0.1912841796875","-0.34521484375","28.137205123901367","-0.1831054538488388","12.084959983825684","-11","16","-21","2"
3064,"-0.8763427734375","0.2183837890625","-0.3677978515625","33.0810546875","0.1831054538488388","15.502928733825684","-11","16","-21","2"
3097,"-0.9046630859375","0.2325439453125","-0.3948974609375","39.97802734375","1.0986328125","20.935056686401367","-11","16","-21","2"
3128,"-0.91552734375","0.2412109375","-0.419677734375","41.748043060302734","0.54931640625","23.376462936401367","-11","19","-23","2"
3159,"-0.9361572265625","0.2628173828125","-0.451416015625","39.12353515625","-1.9531248807907104","24.902341842651367","-11","19","-23","2"
3190,"-0.9434814453125","0.26611328125","-0.4814453125","41.442867279052734","-3.417968511581421","27.404783248901367","-11","19","-23","2"
3221,"-0.95703125","0.265625","-0.4970703125","42.480464935302734","-6.103515148162842","28.442380905151367","-11","19","-23","2"
3252,"-0.9803466796875","0.27734375","-0.5166015625","40.649410247802734","-9.033203125","31.188962936401367","-12","25","-22","2"
3286,"-1.0098876953125","0.2822265625","-0.535400390625","41.870113372802734","-16.7236328125","34.97314453125","-12","25","-22","2"
3317,"-1.1077880859375","0.32177734375","-0.535400390625","49.194332122802734","-21.789548873901367","36.2548828125","-12","25","-22","2"
3348,"-1.0919189453125","0.2979736328125","-0.536865234375","67.5048828125","-22.216794967651367","44.555660247802734","-10","20","-24","2"
3379,"-0.9271240234375","0.149169921875","-0.5186767578125","75.5615234375","-12.634276390075684","50.842281341552734","-10","20","-24","2"
3410,"-0.688232421875","0.0145263671875","-0.4771728515625","65.73486328125","-13.854979515075684","36.31591796875","-10","20","-24","2"
3441,"-0.5897216796875","0.0458984375","-0.4285888671875","50.170894622802734","-31.494138717651367","-6.347655773162842","-13","18","-25","2"
3473,"-0.754150390625","0.1793212890625","-0.413330078125","72.6318359375","-52.490230560302734","-17.39501953125","-13","18","-25","2"
3509,"-0.9400634765625","0.150390625","-0.478271484375","97.83934783935547","-46.936031341552734","2.746581792831421","-13","18","-25","2"
3540,"-0.853515625","0.045166015625","-0.4464111328125","97.59520721435547","-36.2548828125","-0.4882812201976776","-12","21","-27","2"
3575,"-0.709228515625","-0.0216064453125","-0.452392578125","74.951171875","-31.433103561401367","-17.822265625","-12","21","-27","2"
3608,"-0.647705078125","0.03662109375","-0.4576416015625","45.043941497802734","-26.123044967651367","-29.418943405151367","-12","21","-27","2"
3639,"-0.6392822265625","0.1209716796875","-0.4962158203125","30.822751998901367","-19.22607421875","-23.742673873901367","-5","15","-30","2"
3670,"-0.675537109375","0.195068359375","-0.500244140625","27.954099655151367","-14.953612327575684","-12.207030296325684","-5","15","-30","2"
3704,"-0.7198486328125","0.2613525390625","-0.5347900390625","31.005857467651367","-5.065917491912842","-5.920409679412842","-5","15","-30","2"
3735,"-0.705810546875","0.207275390625","-0.5771484375","28.015134811401367","7.873534679412842","8.4228515625","-10","16","-30","2"
3771,"-0.7037353515625","0.1199951171875","-0.6053466796875","-11.779784202575684","12.756346702575684","-0.7934569716453552","-10","16","-30","2"
3802,"-0.7884521484375","0.342041015625","-0.6353759765625","-11.352538108825684","24.047849655151367","11.291502952575684","-10","16","-30","2"
3833,"-0.83349609375","0.2943115234375","-0.6319580078125","-12.390135765075684","24.963376998901367","13.305663108825684","-6","21","-27","2"
3864,"-0.910888671875","0.3184814453125","-0.6519775390625","-21.484373092651367","24.658201217651367","10.803221702575684","-6","21","-27","2"
3895,"-1.044677734375","0.3631591796875","-0.6656494140625","-17.7001953125","29.846189498901367","15.502928733825684","-6","21","-27","2"
3926,"-1.03125","0.3612060546875","-0.676513671875","-18.06640625","39.12353515625","26.306150436401367","-5","20","-32","2"
3957,"-0.896484375","0.2957763671875","-0.5911865234375","-23.498533248901367","41.809078216552734","25.634763717651367","-5","20","-32","2"
3988,"-0.8524169921875","0.3525390625","-0.50439453125","-32.89794921875","28.808591842651367","16.357421875","-5","20","-32","2"
4019,"-0.9554443359375","0.276611328125","-0.510986328125","-27.160642623901367","17.7001953125","11.474608421325684","-5","20","-32","2"
4050,"-1.0887451171875","0.18017578125","-0.4757080078125","-60.974117279052734","9.1552734375","-6.164550304412842","-7","25","-29","2"
4081,"-1.0379638671875","0.27001953125","-0.4072265625","-91.97997283935547","11.291502952575684","-26.794431686401367","-7","25","-29","2"
4112,"-0.8525390625","0.2701416015625","-0.3370361328125","-69.4580078125","2.685546636581421","-40.649410247802734","-7","25","-29","2"
4143,"-0.7166748046875","0.17724609375","-0.2916259765625","-51.513668060302734","-6.591796398162842","-39.61181640625","-9","17","-23","2"
4174,"-0.66796875","0.1058349609375","-0.253662109375","-56.335445404052734","-11.535643577575684","-40.283199310302734","-9","17","-23","2"
4205,"-0.695068359375","0.1866455078125","-0.239990234375","-61.035152435302734","-15.563963890075684","-34.11865234375","-9","17","-23","2"
4236,"-0.7769775390625","0.21240234375","-0.244384765625","-55.297847747802734","-16.29638671875","-21.972654342651367","-12","17","-27","2"
4269,"-0.8631591796875","0.2430419921875","-0.248779296875","-53.833003997802734","-19.6533203125","-19.287109375","-12","17","-27","2"
4304,"-0.8809814453125","0.2633056640625","-0.26611328125","-35.888671875","-15.747069358825684","-15.136717796325684","-12","17","-27","2"
4335,"-0.9404296875","0.2269287109375","-0.274658203125","-11.352538108825684","-15.441893577575684","-6.286620616912842","-10","17","-24","2"
4366,"-1.078857421875","0.1763916015625","-0.327880859375","-9.70458984375","-9.27734375","-1.7700194120407104","-10","17","-24","2"
4401,"-1.052978515625","0.21240234375","-0.3551025390625","-19.775390625","6.896972179412842","9.3994140625","-10","17","-24","2"
4435,"-0.99462890625","0.154296875","-0.4061279296875","-17.333984375","9.58251953125","15.930174827575684","-13","17","-27","2"
4470,"-1.1783447265625","0.1973876953125","-0.4678955078125","-23.925779342651367","-3.051757574081421","11.291502952575684","-13","17","-27","2"
4501,"-1.0518798828125","0.3751220703125","-0.474365234375","6.469726085662842","11.474608421325684","22.094724655151367","-13","17","-27","2"
4532,"-0.6553955078125","0.0631103515625","-0.4652099609375","42.541500091552734","15.624999046325684","26.184080123901367","-14","16","-24","2"
4563,"-0.6175537109375","-0.17724609375","-0.5018310546875","16.4794921875","-11.352538108825684","-17.2119140625","-14","16","-24","2"
4594,"-0.9300537109375","0.0992431640625","-0.528076171875","-22.949216842651367","-28.259275436401367","-39.4287109375","-14","16","-24","2"
4625,"-1.068603515625","0.404052734375","-0.504150390625","-2.50244140625","-26.062009811401367","-28.564451217651367","-14","16","-24","2"
4656,"-0.876708984375","0.1856689453125","-0.5150146484375","71.1669921875","-4.33349609375","0","-12","18","-24","2"
4687,"-0.673828125","-0.1292724609375","-0.5155029296875","46.508785247802734","-0.9765624403953552","-10.192870140075684","-12","18","-24","2"
4718,"-0.643310546875","0.0059814453125","-0.494873046875","-16.2353515625","-6.530761241912842","-30.273435592651367","-12","18","-24","2"
4749,"-0.711669921875","0.2666015625","-0.515625","-21.362302780151367","4.39453125","-21.911619186401367","-8","17","-27","2"
4811,"-0.7230224609375","0.139404296875","-0.5091552734375","-8.23974609375","5.920409679412842","-18.6767578125","-8","17","-27","2"
4842,"-0.7364501953125","0.18603515625","-0.5369873046875","-32.77587890625","14.160155296325684","-22.766111373901367","-8","18","-25","2"
4873,"-0.701171875","0.2161865234375","-0.5384521484375","-44.921871185302734","24.230955123901367","-22.949216842651367","-8","18","-25","2"
4904,"-0.672119140625","0.214111328125","-0.5311279296875","-48.156734466552734","19.71435546875","-22.216794967651367","-8","18","-25","2"
4937,"-0.7664794921875","0.2332763671875","-0.5582275390625","-55.419918060302734","11.413573265075684","-26.611326217651367","-9","21","-27","2"
4969,"-0.840576171875","0.2841796875","-0.5601806640625","-44.982906341552734","11.657713890075684","-25.939939498901367","-9","21","-27","2"
5000,"-0.84765625","0.2713623046875","-0.54541015625","-18.73779296875","7.812499523162842","-24.291990280151367","-9","21","-27","2"
5031,"-0.918212890625","0.2071533203125","-0.557861328125","-4.7607421875","3.723144292831421","-22.033689498901367","-1","28","-28","2"
5062,"-1.22900390625","0.19921875","-0.6148681640625","-9.58251953125","-6.225585460662842","-20.874021530151367","-1","28","-28","2"
5094,"-1.18798828125","0.3077392578125","-0.5948486328125","-3.601073980331421","5.554198741912842","-4.33349609375","-1","28","-28","2"
5125,"-0.8282470703125","0.14892578125","-0.463134765625","34.423828125","16.29638671875","14.892577171325684","-4","24","-25","2"
5159,"-0.771728515625","-0.056884765625","-0.4248046875","43.579097747802734","-6.591796398162842","-5.981444835662842","-4","24","-25","2"
5190,"-1.10595703125","0.0498046875","-0.4512939453125","0.2441406100988388","-17.02880859375","3.295898199081421","-4","24","-25","2"
5222,"-1.164794921875","0.1688232421875","-0.4541015625","-9.33837890625","-6.103515148162842","20.568845748901367","-4","24","-25","2"
5253,"-0.98876953125","0.1539306640625","-0.38037109375","8.1787109375","3.173827886581421","35.82763671875","3","22","-32","2"
5285,"-0.8487548828125","0.0712890625","-0.35546875","46.813961029052734","-22.399900436401367","28.320310592651367","3","22","-32","2"
5320,"-0.8369140625","0.0213623046875","-0.3360595703125","46.630855560302734","-33.203125","11.047362327575684","3","22","-32","2"
5356,"-0.7838134765625","0.07421875","-0.3272705078125","53.161617279052734","-40.466304779052734","6.408690929412842","4","16","-32","2"
5387,"-0.8052978515625","0.1129150390625","-0.335205078125","62.683101654052734","-44.677730560302734","8.1787109375","4","16","-32","2"
5420,"-0.896240234375","0.1424560546875","-0.3712158203125","80.13916015625","-47.424312591552734","17.51708984375","1","10","-32","2"
5451,"-0.861572265625","0.189208984375","-0.409423828125","80.01708984375","-39.4287109375","27.893064498901367","1","10","-32","2"
5482,"-0.8516845703125","0.1898193359375","-0.43310546875","81.66503143310547","-35.46142578125","35.82763671875","1","10","-32","2"
5517,"-0.83154296875","0.1307373046875","-0.467529296875","72.32666015625","-30.578611373901367","39.24560546875","1","10","-32","2"
5548,"-0.8443603515625","0.175048828125","-0.4732666015625","50.964351654052734","-27.648923873901367","41.442867279052734","9","12","-29","2"
5579,"-0.8875732421875","0.24560546875","-0.49853515625","46.203609466552734","-25.390623092651367","48.034664154052734","9","12","-29","2"
5610,"-0.882080078125","0.25732421875","-0.520751953125","48.950191497802734","-22.705076217651367","62.499996185302734","9","12","-29","2"
5641,"-0.8443603515625","0.235107421875","-0.526611328125","60.424800872802734","-21.423337936401367","72.1435546875","7","14","-29","2"
5672,"-0.8780517578125","0.23095703125","-0.55322265625","64.27001953125","-28.198240280151367","75.98876953125","7","14","-29","2"
5703,"-1.1531982421875","0.3046875","-0.587158203125","76.904296875","-31.555173873901367","84.41161346435547","7","14","-29","2"
5735,"-1.0670166015625","0.3092041015625","-0.564208984375","83.43505096435547","-21.606443405151367","93.07860565185547","6","11","-29","2"
5771,"-0.5621337890625","0.1468505859375","-0.5029296875","104.91942596435547","-15.075682640075684","89.78270721435547","6","11","-29","2"
5802,"-0.698974609375","0.0247802734375","-0.525634765625","100.34178924560547","-29.296873092651367","74.64599609375","6","11","-29","2"
5833,"-0.9969482421875","0.290771484375","-0.540283203125","68.29833984375","-35.888671875","57.373043060302734","9","20","-32","2"
5864,"-0.97998046875","0.38037109375","-0.5323486328125","85.26610565185547","-21.301267623901367","74.70703125","9","20","-32","2"
5896,"-0.803955078125","0.228271484375","-0.5294189453125","105.34667205810547","-10.498045921325684","84.04540252685547","9","20","-32","2"
5927,"-0.634033203125","0.0345458984375","-0.522705078125","75.62255859375","-6.225585460662842","67.0166015625","9","20","-32","2"
5958,"-0.6007080078125","0.175537109375","-0.5030517578125","40.0390625","-9.58251953125","42.785640716552734","9","13","-24","2"
5994,"-0.654296875","0.28173828125","-0.515869140625","54.077144622802734","-0.4882812201976776","53.649898529052734","9","13","-24","2"
6028,"-0.6676025390625","0.2117919921875","-0.523681640625","48.950191497802734","4.150390625","52.551265716552734","9","17","-23","2"
6060,"-0.70263671875","0.22509765625","-0.549072265625","32.28759765625","6.530761241912842","46.264644622802734","9","17","-23","2"
6091,"-0.7174072265625","0.2427978515625","-0.581298828125","22.644041061401367","15.747069358825684","38.330078125","9","17","-23","2"
6123,"-0.6971435546875","0.215087890625","-0.6148681640625","13.671874046325684","16.2353515625","33.38623046875","8","15","-24","2"
6159,"-0.710693359375","0.2034912109375","-0.634521484375","8.60595703125","15.014647483825684","24.597166061401367","8","15","-24","2"
6190,"-0.76904296875","0.2049560546875","-0.6533203125","1.220703125","12.573241233825684","14.160155296325684","8","15","-24","2"
6221,"-0.7996826171875","0.2286376953125","-0.6534423828125","1.15966796875","13.732909202575684","7.507323741912842","12","16","-25","2"
6252,"-0.8306884765625","0.187744140625","-0.66455078125","3.540038824081421","16.29638671875","1.9531248807907104","12","16","-25","2"
6283,"-0.9971923828125","0.2003173828125","-0.665283203125","-2.929687261581421","12.878417015075684","-6.958007335662842","12","16","-25","2"
6314,"-1.089599609375","0.26806640625","-0.6829833984375","-4.69970703125","14.282225608825684","-7.385253429412842","12","16","-25","2"
6345,"-0.9432373046875","0.1776123046875","-0.6385498046875","-0.6713866591453552","25.634763717651367","-5.187987804412842","11","22","-23","2"
6376,"-0.7982177734375","0.07421875","-0.5693359375","-16.4794921875","9.46044921875","-28.137205123901367","11","22","-23","2"
6407,"-0.87646484375","0.0667724609375","-0.5338134765625","-31.188962936401367","-2.563476324081421","-35.70556640625","11","22","-23","2"
6438,"-1.0491943359375","0.12060546875","-0.5306396484375","-46.325679779052734","-5.493163585662842","-37.53662109375","12","12","-26","2"
6469,"-1.004150390625","0.2237548828125","-0.4881591796875","-47.851558685302734","4.69970703125","-26.000974655151367","12","12","-26","2"
6500,"-0.9049072265625","0.1495361328125","-0.431396484375","-29.174802780151367","-0.4882812201976776","-21.667478561401367","12","12","-26","2"
6531,"-0.816162109375","0.09033203125","-0.40283203125","-27.709959030151367","-8.97216796875","-31.066892623901367","13","8","-31","2"
6562,"-0.7685546875","0.1038818359375","-0.3782958984375","-28.991697311401367","-10.375975608825684","-33.14208984375","13","8","-31","2"
6593,"-0.7447509765625","0.1070556640625","-0.357177734375","-18.4326171875","-14.587401390075684","-25.207517623901367","13","8","-31","2"
6624,"-0.7725830078125","0.0848388671875","-0.3543701171875","-15.136717796325684","-17.51708984375","-21.118162155151367","13","8","-31","2"
6655,"-0.830322265625","0.1055908203125","-0.3526611328125","-16.2353515625","-17.08984375","-19.34814453125","14","7","-31","2"
6686,"-0.845947265625","0.1246337890625","-0.3668212890625","-14.648436546325684","-13.488768577575684","-14.099120140075684","14","7","-31","2"
6717,"-0.8665771484375","0.11865234375","-0.381103515625","-12.573241233825684","-11.596678733825684","-7.934569835662842","14","7","-31","2"
6748,"-0.910400390625","0.150390625","-0.3988037109375","-10.131834983825684","-11.291502952575684","-3.662109136581421","11","4","-28","2"
6780,"-0.9649658203125","0.173828125","-0.41162109375","-2.25830078125","-8.11767578125","6.042479991912842","11","4","-28","2"
6811,"-1.00048828125","0.145263671875","-0.45361328125","0.6103515625","-5.371093273162842","12.390135765075684","11","4","-28","2"
6842,"-0.94775390625","0.1102294921875","-0.578125","-21.179197311401367","-7.202147960662842","18.61572265625","12","3","-27","2"
6877,"-1.086181640625","0.2542724609375","-0.5135498046875","-19.34814453125","-13.916014671325684","9.21630859375","12","3","-27","2"
6909,"-1.100341796875","0.3660888671875","-0.57177734375","34.7900390625","-19.71435546875","7.080077648162842","12","3","-27","2"
6942,"-0.880126953125","0.037841796875","-0.6016845703125","57.678218841552734","-5.920409679412842","28.076169967651367","15","2","-30","2"
6973,"-0.6185302734375","-0.1021728515625","-0.567626953125","13.732909202575684","0.9155272841453552","9.82666015625","15","2","-30","2"
7004,"-0.57666015625","0.0352783203125","-0.537353515625","-3.051757574081421","-11.413573265075684","-7.934569835662842","15","2","-30","2"
7035,"-0.8651123046875","0.2220458984375","-0.52783203125","18.37158203125","-20.324705123901367","-3.295898199081421","17","-1","-29","2"
7066,"-0.9385986328125","0.0986328125","-0.54833984375","31.066892623901367","-10.437010765075684","7.385253429412842","17","-1","-29","2"
7097,"-0.87353515625","0.0634765625","-0.5279541015625","16.11328125","0.8544921278953552","1.2817381620407104","17","-1","-29","2"
7129,"-0.7510986328125","0.117919921875","-0.5299072265625","-0.30517578125","5.432128429412842","-5.737304210662842","17","4","-26","2"
7160,"-0.6448974609375","0.0992431640625","-0.527099609375","3.356933355331421","8.056640625","-6.225585460662842","17","4","-26","2"
7195,"-0.643798828125","0.0675048828125","-0.55224609375","-7.812499523162842","10.192870140075684","-10.864256858825684","17","4","-26","2"
7226,"-0.661376953125","0.1185302734375","-0.56103515625","-22.155759811401367","16.78466796875","-9.46044921875","17","4","-26","2"
7260,"-0.7130126953125","0.164794921875","-0.6011962890625","-35.46142578125","24.719236373901367","2.807616949081421","14","-5","-31","2"
7295,"-0.7325439453125","0.1585693359375","-0.6156005859375","-47.119136810302734","30.883787155151367","5.371093273162842","14","-5","-31","2"
7326,"-0.702880859375","0.177001953125","-0.623046875","-54.626461029052734","31.555173873901367","-1.4038084745407104","14","-5","-31","2"
7357,"-0.77294921875","0.2073974609375","-0.62841796875","-56.274410247802734","24.597166061401367","-5.249022960662842","10","2","-33","2"
7388,"-0.810546875","0.208984375","-0.6148681640625","-57.373043060302734","23.498533248901367","-8.9111328125","10","2","-33","2"
7419,"-0.822998046875","0.19677734375","-0.5982666015625","-55.725093841552734","21.972654342651367","-16.66259765625","10","2","-33","2"
7450,"-0.882568359375","0.1973876953125","-0.5892333984375","-51.574703216552734","18.24951171875","-25.634763717651367","8","1","-42","2"
7481,"-1.0218505859375","0.212646484375","-0.595947265625","-48.095699310302734","18.310546875","-29.846189498901367","8","1","-42","2"
7512,"-1.1126708984375","0.2000732421875","-0.6136474609375","-45.715328216552734","20.751951217651367","-30.639646530151367","8","1","-42","2"
7545,"-1.0755615234375","0.1376953125","-0.6048583984375","-56.091304779052734","29.541013717651367","-30.029294967651367","4","-7","-40","2"
7577,"-0.856689453125","0.08544921875","-0.5423583984375","-73.30322265625","29.479978561401367","-33.203125","4","-7","-40","2"
7608,"-0.7606201171875","0.053955078125","-0.5096435546875","-96.31346893310547","15.014647483825684","-43.273921966552734","4","-7","-40","2"
7639,"-0.8681640625","0.160400390625","-0.509521484375","-115.23436737060547","-0.9765624403953552","-43.029781341552734","-5","-1","-44","2"
7670,"-0.9654541015625","0.300048828125","-0.4537353515625","-99.73143768310547","-3.906249761581421","-39.00146484375","-5","-1","-44","2"
7701,"-0.995849609375","0.320068359375","-0.3857421875","-52.856441497802734","-17.63916015625","-31.066892623901367","-5","-1","-44","2"
7732,"-0.9788818359375","0.1575927734375","-0.348388671875","-24.291990280151367","-21.728513717651367","-32.470703125","-5","-1","-44","2"
7763,"-0.827880859375","-0.017333984375","-0.28759765625","-35.0341796875","-14.160155296325684","-37.109375","-14","-5","-36","2"
7794,"-0.7711181640625","-0.0406494140625","-0.2769775390625","-54.870601654052734","-11.108397483825684","-35.7666015625","-14","-5","-36","2"
7828,"-0.710693359375","-0.033447265625","-0.298583984375","-80.50536346435547","-7.934569835662842","-27.709959030151367","-14","-5","-36","2"
7859,"-0.7833251953125","0.0701904296875","-0.3001708984375","-82.82469940185547","-10.131834983825684","-28.015134811401367","-17","2","-34","2"
7890,"-0.937744140625","0.2110595703125","-0.3079833984375","-49.316402435302734","-22.644041061401367","-23.498533248901367","-17","2","-34","2"
7921,"-0.938232421875","0.1900634765625","-0.3392333984375","0","-15.502928733825684","-5.310058116912842","-17","2","-34","2"
7952,"-0.9395751953125","0.0714111328125","-0.33935546875","20.935056686401367","-12.207030296325684","-0.1220703050494194","-16","0","-32","2"
7983,"-0.961181640625","0.0518798828125","-0.3687744140625","22.888181686401367","-9.6435546875","-5.798339366912842","-16","0","-32","2"
8014,"-0.9908447265625","0.010498046875","-0.4080810546875","11.596678733825684","-1.3427733182907104","-3.723144292831421","-16","0","-32","2"
8048,"-1.0462646484375","0.05615234375","-0.419189453125","3.784179449081421","1.7089842557907104","-6.530761241912842","-14","2","-31","2"
8079,"-1.0218505859375","0.05078125","-0.442626953125","21.911619186401367","-2.50244140625","0.0610351525247097","-14","2","-31","2"
8110,"-1.0546875","0.05078125","-0.46337890625","34.72900390625","-8.9111328125","4.5166015625","-14","2","-31","2"
8141,"-1.103271484375","0.0882568359375","-0.4898681640625","62.011714935302734","-20.874021530151367","8.11767578125","-15","1","-30","2"
8174,"-0.993408203125","0.0089111328125","-0.5196533203125","101.86766815185547","-15.258788108825684","29.785154342651367","-15","1","-30","2"
8205,"-0.714111328125","-0.180908203125","-0.506591796875","99.36522674560547","-9.6435546875","37.7197265625","-15","1","-30","2"
8241,"-0.7696533203125","-0.0987548828125","-0.506591796875","75.0732421875","-24.414060592651367","26.855466842651367","-9","-4","-24","2"
8272,"-1.011962890625","0.1650390625","-0.5535888671875","69.76318359375","-43.151851654052734","29.846189498901367","-9","-4","-24","2"
8303,"-0.9613037109375","0.2403564453125","-0.5885009765625","112.36571502685547","-32.2265625","60.180660247802734","-9","-4","-24","2"
8337,"-0.7816162109375","0.0609130859375","-0.580810546875","127.56346893310547","-25.451658248901367","73.42529296875","-2","-4","-25","2"
8373,"-0.656005859375","0.05908203125","-0.5826416015625","82.03124237060547","-28.564451217651367","57.312007904052734","-2","-4","-25","2"
8407,"-0.6396484375","0.175048828125","-0.5606689453125","57.922359466552734","-20.01953125","57.739253997802734","-2","-4","-25","2"
8439,"-0.625732421875","0.2198486328125","-0.533935546875","58.654781341552734","-18.85986328125","60.302730560302734","1","-7","-23","2"
8470,"-0.6612548828125","0.2423095703125","-0.52099609375","58.837886810302734","-20.996091842651367","59.143062591552734","1","-7","-23","2"
8504,"-0.7388916015625","0.252685546875","-0.539794921875","59.936519622802734","-14.038084983825684","61.218257904052734","1","-7","-23","2"
8535,"-0.73486328125","0.20849609375","-0.5494384765625","47.180171966552734","-3.662109136581421","61.157222747802734","4","-9","-21","2"
8570,"-0.698974609375","0.212890625","-0.5731201171875","22.583005905151367","9.033203125","56.396480560302734","4","-9","-21","2"
8604,"-0.727783203125","0.2247314453125","-0.6080322265625","11.474608421325684","15.014647483825684","52.062984466552734","4","-9","-21","2"
8640,"-0.775634765625","0.2410888671875","-0.6455078125","5.615233898162842","18.98193359375","44.372554779052734","3","-9","-24","2"
8671,"-0.8245849609375","0.2630615234375","-0.6680908203125","8.23974609375","17.9443359375","30.151365280151367","3","-9","-24","2"
8702,"-1.0216064453125","0.294677734375","-0.70751953125","15.930174827575684","13.488768577575684","19.83642578125","3","-9","-24","2"
8733,"-1.053466796875","0.30322265625","-0.7288818359375","24.108884811401367","19.775390625","16.05224609375","4","-5","-19","2"
8764,"-0.8602294921875","0.168701171875","-0.6771240234375","26.306150436401367","26.550291061401367","5.249022960662842","4","-5","-19","2"
8797,"-0.7369384765625","0.0819091796875","-0.62548828125","2.38037109375","12.573241233825684","-21.118162155151367","4","-5","-19","2"
8832,"-0.762939453125","0.143798828125","-0.5928955078125","-17.9443359375","3.295898199081421","-31.616209030151367","4","-5","-19","2"
8868,"-0.93603515625","0.1778564453125","-0.5894775390625","-26.611326217651367","-0.3662109076976776","-26.550291061401367","5","-9","-18","2"
8899,"-0.9874267578125","0.2462158203125","-0.564697265625","-29.235837936401367","6.225585460662842","-20.812986373901367","5","-9","-18","2"
8930,"-0.8558349609375","0.2000732421875","-0.5030517578125","-13.061522483825684","1.9531248807907104","-19.95849609375","5","-9","-18","2"
8965,"-0.7403564453125","0.101806640625","-0.4666748046875","-15.991209983825684","-7.995604991912842","-36.62109375","6","-10","-19","2"
8996,"-0.6982421875","0.1153564453125","-0.44482421875","-19.53125","-15.563963890075684","-45.776363372802734","6","-10","-19","2"
9027,"-0.7279052734375","0.1595458984375","-0.42919921875","-11.718749046325684","-22.949216842651367","-41.625972747802734","5","-9","-20","2"
9058,"-0.8006591796875","0.1812744140625","-0.429443359375","-5.249022960662842","-24.719236373901367","-38.4521484375","5","-9","-20","2"
9089,"-0.8291015625","0.1822509765625","-0.4293212890625","-2.624511480331421","-23.620603561401367","-38.26904296875","5","-9","-20","2"
9120,"-0.8240966796875","0.1722412109375","-0.440673828125","0.6103515625","-18.98193359375","-33.3251953125","5","-9","-20","2"
9153,"-0.8480224609375","0.1710205078125","-0.4735107421875","-5.615233898162842","-11.901854515075684","-15.075682640075684","4","-8","-17","2"
9185,"-0.8692626953125","0.158935546875","-0.4869384765625","-7.507323741912842","-5.737304210662842","-1.4648436307907104","4","-8","-17","2"
9216,"-0.893798828125","0.1785888671875","-0.5062255859375","-8.544921875","-3.845214605331421","4.21142578125","4","-8","-17","2"
9247,"-0.9134521484375","0.1732177734375","-0.5372314453125","-6.408690929412842","1.5869139432907104","21.911619186401367","5","-17","-15","2"
9280,"-0.89404296875","0.12255859375","-0.561767578125","-9.033203125","2.624511480331421","30.151365280151367","5","-17","-15","2"
9316,"-1.062255859375","0.2198486328125","-0.570556640625","-16.66259765625","0.54931640625","32.3486328125","5","-17","-15","2"
9347,"-1.0740966796875","0.2633056640625","-0.59521484375","1.9531248807907104","4.8828125","40.527339935302734","4","-9","-12","2"
9378,"-0.809814453125","0.13720703125","-0.564453125","12.207030296325684","12.084959983825684","46.081539154052734","4","-9","-12","2"
9409,"-0.54150390625","0.02978515625","-0.5250244140625","13.000487327575684","1.15966796875","17.63916015625","4","-9","-12","2"
9440,"-0.6661376953125","0.0740966796875","-0.52783203125","10.192870140075684","-23.559568405151367","-9.033203125","3","-8","-11","2"
9471,"-0.9078369140625","0.24267578125","-0.5498046875","26.489255905151367","-28.381345748901367","-11.840819358825684","3","-8","-11","2"
9503,"-0.976806640625","0.1807861328125","-0.5643310546875","46.325679779052734","-15.319823265075684","3.356933355331421","3","-8","-11","2"
9534,"-0.82421875","0.0257568359375","-0.56103515625","33.63037109375","-5.432128429412842","0.4272460639476776","1","-3","-9","2"
9565,"-0.715576171875","0.04052734375","-0.560546875","1.6479490995407104","-0.1831054538488388","-11.718749046325684","1","-3","-9","2"
9600,"-0.644775390625","0.1871337890625","-0.5648193359375","-3.845214605331421","-1.220703125","-12.878417015075684","1","-3","-9","2"
9631,"-0.67333984375","0.19580078125","-0.567138671875","4.33349609375","2.25830078125","-10.437010765075684","1","-3","-9","2"
9662,"-0.6798095703125","0.184326171875","-0.58056640625","-4.33349609375","8.97216796875","-6.896972179412842","-1","-13","-13","2"
9695,"-0.680419921875","0.189697265625","-0.587158203125","-14.709471702575684","14.953612327575684","-5.0048828125","-1","-13","-13","2"
9730,"-0.6597900390625","0.1771240234375","-0.618896484375","-28.991697311401367","22.399900436401367","-5.065917491912842","1","-10","-13","2"
9765,"-0.67041015625","0.218505859375","-0.6473388671875","-46.386714935302734","24.536130905151367","-3.112792730331421","1","-10","-13","2"
9797,"-0.702392578125","0.25048828125","-0.6572265625","-45.349117279052734","24.353025436401367","-5.310058116912842","1","-10","-13","2"
9828,"-0.729736328125","0.2513427734375","-0.6676025390625","-47.363277435302734","25.024412155151367","-6.042479991912842","0","-9","-13","2"
9859,"-0.7899169921875","0.254150390625","-0.665283203125","-51.879878997802734","22.094724655151367","-7.873534679412842","0","-9","-13","2"
9890,"-0.842041015625","0.2822265625","-0.6563720703125","-49.499507904052734","22.766111373901367","-9.1552734375","0","-9","-13","2"
9921,"-0.862548828125","0.244873046875","-0.6431884765625","-45.227046966552734","24.780271530151367","-12.878417015075684","0","-9","-13","2"
9952,"-1.0155029296875","0.2838134765625","-0.6170654296875","-46.630855560302734","22.766111373901367","-21.545408248901367","-1","-8","-14","2"
9983,"-0.98291015625","0.251220703125","-0.6126708984375","-46.264644622802734","35.58349609375","-18.73779296875","-1","-8","-14","2"
10014,"-0.89599609375","0.162109375","-0.545166015625","-54.504390716552734","36.56005859375","-19.8974609375","-1","-8","-14","2"
10049,"-0.833984375","0.16357421875","-0.4840087890625","-86.18163299560547","28.930662155151367","-38.14697265625","-4","-10","-16","2"
10085,"-0.9832763671875","0.2529296875","-0.41259765625","-96.31346893310547","23.559568405151367","-38.330078125","-4","-10","-16","2"
10116,"-1.0987548828125","0.265869140625","-0.3890380859375","-103.82079315185547","20.629880905151367","-33.75244140625","-4","-10","-16","2"
10147,"-1.0296630859375","0.287353515625","-0.3731689453125","-107.97118377685547","36.56005859375","-23.742673873901367","-9","-8","-5","2"
10180,"-0.8839111328125","0.2083740234375","-0.34228515625","-110.10741424560547","37.2314453125","-21.118162155151367","-9","-8","-5","2"
10211,"-0.7637939453125","0.18017578125","-0.3408203125","-131.7138671875","28.686521530151367","-40.893550872802734","-9","-8","-5","2"
10242,"-0.7042236328125","0.2073974609375","-0.3353271484375","-137.5732421875","15.014647483825684","-54.870601654052734","-9","-4","-10","2"
10273,"-0.7218017578125","0.2559814453125","-0.327880859375","-122.49755096435547","3.784179449081421","-48.889156341552734","-9","-4","-10","2"
10305,"-0.77294921875","0.289306640625","-0.30224609375","-104.67528533935547","-3.479003667831421","-43.395992279052734","-9","-4","-10","2"
10336,"-0.837646484375","0.2838134765625","-0.2884521484375","-70.49560546875","-13.732909202575684","-39.306640625","-9","-4","-10","2"
10367,"-0.9097900390625","0.22607421875","-0.3021240234375","-50.964351654052734","-17.39501953125","-36.4990234375","-10","-2","-5","2"
10398,"-0.9688720703125","0.1717529296875","-0.3157958984375","-53.344722747802734","-16.17431640625","-39.73388671875","-10","-2","-5","2"
10429,"-1.0035400390625","0.1727294921875","-0.3221435546875","-56.152339935302734","-15.624999046325684","-43.579097747802734","-10","-2","-5","2"
10463,"-1.0655517578125","0.1656494140625","-0.3546142578125","-49.865718841552734","-14.892577171325684","-40.527339935302734","-10","0","-10","2"
10498,"-1.034912109375","0.12841796875","-0.3648681640625","-37.109375","-13.610838890075684","-36.68212890625","-10","0","-10","2"
10529,"-1.0010986328125","0.07177734375","-0.388916015625","-26.794431686401367","-16.4794921875","-32.89794921875","-10","0","-10","2"
10560,"-1.107421875","0.114501953125","-0.3905029296875","-14.831542015075684","-24.658201217651367","-34.423828125","-12","-1","-4","2"
10591,"-1.1905517578125","0.125244140625","-0.4444580078125","10.498045921325684","-23.193357467651367","-32.5927734375","-12","-1","-4","2"
10626,"-0.7076416015625","-0.192138671875","-0.4757080078125","5.920409679412842","8.056640625","-13.122557640075684","-12","-1","-4","2"
10657,"-0.671142578125","-0.218994140625","-0.4921875","-41.992183685302734","-4.33349609375","-26.977537155151367","-8","2","-6","2"
10691,"-1.002685546875","0.162109375","-0.5091552734375","-57.556148529052734","-24.108884811401367","-33.203125","-8","2","-6","2"
10722,"-1.039306640625","0.3369140625","-0.521484375","21.423337936401367","-0.6713866591453552","2.25830078125","-8","2","-6","2"
10753,"-0.7498779296875","-0.0389404296875","-0.47998046875","39.306640625","15.136717796325684","17.822265625","-10","8","-7","2"
10784,"-0.6539306640625","-0.11962890625","-0.451171875","6.591796398162842","11.962889671325684","1.6479490995407104","-10","8","-7","2"
10815,"-0.6861572265625","0.143310546875","-0.4656982421875","-46.569820404052734","6.103515148162842","-14.892577171325684","-10","8","-7","2"
10851,"-0.73388671875","0.2015380859375","-0.4874267578125","-32.5927734375","19.1650390625","4.150390625","-8","5","-9","2"
10882,"-0.7283935546875","0.10791015625","-0.4925537109375","-38.87939453125","20.568845748901367","4.45556640625","-8","5","-9","2"
10913,"-0.7799072265625","0.1824951171875","-0.4967041015625","-41.870113372802734","18.12744140625","-1.7089842557907104","-8","5","-9","2"
10946,"-0.7987060546875","0.1639404296875","-0.5137939453125","-42.785640716552734","24.230955123901367","-0.6103515625","-8","4","-10","2"
10981,"-0.745361328125","0.088134765625","-0.50439453125","-55.053707122802734","24.780271530151367","-10.498045921325684","-8","4","-10","2"
11013,"-0.777099609375","0.1142578125","-0.5203857421875","-59.692378997802734","23.132322311401367","-16.7236328125","-8","4","-10","2"
11048,"-0.8349609375","0.132568359375","-0.5531005859375","-62.011714935302734","27.465818405151367","-13.732909202575684","-13","4","-10","2"
11083,"-0.834228515625","0.1673583984375","-0.56689453125","-64.14794921875","26.123044967651367","-17.15087890625","-13","4","-10","2"
11114,"-0.818115234375","0.1827392578125","-0.576416015625","-51.025386810302734","21.484373092651367","-22.399900436401367","-13","4","-10","2"
11148,"-0.9130859375","0.17431640625","-0.60205078125","-39.73388671875","11.108397483825684","-30.883787155151367","-15","4","-9","2"
11179,"-1.0963134765625","0.208251953125","-0.646240234375","-36.4990234375","0.1220703050494194","-38.51318359375","-15","4","-9","2"
11210,"-1.0029296875","0.172119140625","-0.6107177734375","-21.057126998901367","7.568358898162842","-36.2548828125","-15","4","-9","2"
11241,"-0.815673828125","0.0330810546875","-0.5072021484375","-21.362302780151367","4.39453125","-40.893550872802734","-13","7","-2","2"
11274,"-0.8681640625","0.0465087890625","-0.4901123046875","-45.104976654052734","-14.587401390075684","-50.537105560302734","-13","7","-2","2"
11305,"-1.0616455078125","0.1466064453125","-0.5155029296875","-65.91796875","-13.610838890075684","-38.14697265625","-13","7","-2","2"
11336,"-1.0662841796875","0.2637939453125","-0.470458984375","-65.61279296875","-7.568358898162842","-28.747556686401367","-13","7","-2","2"
11367,"-0.9398193359375","0.2545166015625","-0.399169921875","-24.719236373901367","-14.770506858825684","-27.404783248901367","-10","11","0","2"
11398,"-0.8680419921875","0.1771240234375","-0.3641357421875","2.868652105331421","-19.6533203125","-26.855466842651367","-10","11","0","2"
11429,"-0.7578125","0.034423828125","-0.323974609375","-5.249022960662842","-16.66259765625","-29.479978561401367","-10","11","0","2"
11465,"-0.7158203125","0.0687255859375","-0.298583984375","-28.625486373901367","-17.39501953125","-29.846189498901367","-9","16","-7","2"
11496,"-0.7825927734375","0.14453125","-0.2918701171875","-22.094724655151367","-19.287109375","-23.010251998901367","-9","16","-7","2"
11527,"-0.830810546875","0.1463623046875","-0.2972412109375","-6.835937023162842","-15.380858421325684","-11.596678733825684","-9","16","-7","2"
11558,"-0.862060546875","0.1231689453125","-0.2978515625","7.995604991912842","-9.3994140625","-3.417968511581421","-8","19","-10","2"
11589,"-0.9180908203125","0.0914306640625","-0.3197021484375","15.441893577575684","-7.263183116912842","0.2441406100988388","-8","19","-10","2"
11620,"-0.969482421875","0.0589599609375","-0.33642578125","7.934569835662842","3.295898199081421","8.23974609375","-8","19","-10","2"
11651,"-0.9884033203125","0.0941162109375","-0.354248046875","2.44140625","11.901854515075684","11.596678733825684","-9","13","-9","2"
11682,"-1.01953125","0.0999755859375","-0.406494140625","8.11767578125","16.11328125","21.545408248901367","-9","13","-9","2"
11713,"-1.0537109375","0.109619140625","-0.4547119140625","10.192870140075684","19.1650390625","32.04345703125","-9","13","-9","2"
11748,"-1.0234375","0.138916015625","-0.5272216796875","13.854979515075684","12.817381858825684","43.518062591552734","-6","17","-7","2"
11779,"-1.084716796875","0.2562255859375","-0.5491943359375","34.36279296875","2.13623046875","46.386714935302734","-6","17","-7","2"
11812,"-0.96728515625","0.244384765625","-0.5963134765625","82.21434783935547","-7.324218273162842","50.598140716552734","-6","17","-7","2"
11844,"-0.7196044921875","0.1246337890625","-0.585205078125","119.81200408935547","-21.728513717651367","56.884761810302734","-8","12","-8","2"
11875,"-0.5931396484375","0.0660400390625","-0.649658203125","129.57763671875","-31.860349655151367","46.874996185302734","-8","12","-8","2"
11906,"-0.7174072265625","-0.02978515625","-0.624755859375","108.88671112060547","-32.71484375","40.0390625","-8","12","-8","2"
11937,"-0.8787841796875","0.1209716796875","-0.6175537109375","81.90917205810547","-28.137205123901367","35.64453125","-8","12","-8","2"
11968,"-0.9114990234375","0.106689453125","-0.5833740234375","67.5048828125","-20.263669967651367","29.602048873901367","-9","14","-16","2"
11999,"-0.8109130859375","0.1419677734375","-0.5313720703125","56.945796966552734","-14.831542015075684","25.878904342651367","-9","14","-16","2"
12030,"-0.7655029296875","0.142822265625","-0.493896484375","50.170894622802734","-11.901854515075684","24.658201217651367","-9","14","-16","2"
12064,"-0.72607421875","0.1622314453125","-0.46435546875","45.715328216552734","-6.164550304412842","22.705076217651367","-8","18","-11","2"
12095,"-0.7159423828125","0.1119384765625","-0.45751953125","43.334957122802734","-1.2817381620407104","20.935056686401367","-8","18","-11","2"
12126,"-0.712158203125","0.0936279296875","-0.4713134765625","27.770994186401367","4.82177734375","17.63916015625","-8","18","-11","2"
12157,"-0.720947265625","0.1046142578125","-0.488037109375","9.033203125","13.061522483825684","18.4326171875","-9","13","-12","2"
12189,"-0.7265625","0.1448974609375","-0.5125732421875","2.746581792831421","20.202634811401367","22.216794967651367","-9","13","-12","2"
12220,"-0.7041015625","0.199951171875","-0.57275390625","2.50244140625","23.254392623901367","32.28759765625","-9","13","-12","2"
12253,"-0.7000732421875","0.218994140625","-0.6163330078125","2.807616949081421","23.071287155151367","39.0625","-7","15","-14","2"
12289,"-0.798583984375","0.2958984375","-0.63671875","6.042479991912842","14.648436546325684","19.34814453125","-7","15","-14","2"
12320,"-0.875244140625","0.2894287109375","-0.6669921875","16.78466796875","8.11767578125","4.0283203125","-7","15","-14","2"
12351,"-0.91650390625","0.2705078125","-0.690673828125","19.10400390625","5.798339366912842","-14.099120140075684","-8","20","-15","2"
12382,"-0.9844970703125","0.3214111328125","-0.6998291015625","23.681638717651367","-1.03759765625","-19.34814453125","-8","20","-15","2"
12415,"-0.8802490234375","0.336669921875","-0.7139892578125","36.0107421875","3.356933355331421","-12.207030296325684","-8","20","-15","2"
12449,"-0.7213134765625","0.0413818359375","-0.5963134765625","20.935056686401367","1.5869139432907104","-16.41845703125","0","22","-20","2"
12480,"-0.9857177734375","0.1551513671875","-0.5653076171875","-26.794431686401367","-15.319823265075684","-40.405269622802734","0","22","-20","2"
12512,"-1.221435546875","0.3021240234375","-0.57275390625","-31.188962936401367","-20.446775436401367","-44.738765716552734","0","22","-20","2"
12543,"-1.2362060546875","0.2288818359375","-0.531982421875","-21.728513717651367","-11.352538108825684","-47.180171966552734","0","11","-15","2"
12578,"-1.0242919921875","0.1048583984375","-0.47216796875","-8.97216796875","-6.408690929412842","-47.424312591552734","0","11","-15","2"
12611,"-0.7225341796875","-0.0562744140625","-0.3992919921875","-22.277830123901367","-5.310058116912842","-47.851558685302734","0","11","-15","2"
12647,"-0.6605224609375","-0.00439453125","-0.3804931640625","-56.518550872802734","-11.230467796325684","-59.448238372802734","1","19","-17","2"
12678,"-0.5870361328125","0.111572265625","-0.3951416015625","-47.485347747802734","-18.49365234375","-50.048824310302734","1","19","-17","2"
12709,"-0.6416015625","0.1973876953125","-0.4168701171875","-28.564451217651367","-31.188962936401367","-47.363277435302734","1","19","-17","2"
12740,"-0.794921875","0.240478515625","-0.4827880859375","-7.385253429412842","-37.7197265625","-44.799800872802734","1","6","-19","2"
12771,"-0.8372802734375","0.2032470703125","-0.4940185546875","-9.27734375","-26.672361373901367","-28.442380905151367","1","6","-19","2"
12804,"-0.8367919921875","0.249755859375","-0.488037109375","-8.48388671875","-23.010251998901367","-22.460935592651367","1","6","-19","2"
12835,"-0.884765625","0.23583984375","-0.50634765625","2.50244140625","-22.705076217651367","-12.329100608825684","2","6","-21","2"
12866,"-0.9119873046875","0.2132568359375","-0.516845703125","1.2817381620407104","-17.08984375","-6.225585460662842","2","6","-21","2"
12897,"-0.9110107421875","0.227783203125","-0.5360107421875","-5.310058116912842","-2.685546636581421","12.634276390075684","2","6","-21","2"
12928,"-0.830322265625","0.2401123046875","-0.552978515625","-5.798339366912842","5.187987804412842","32.04345703125","2","6","-21","2"
12963,"-0.908447265625","0.3348388671875","-0.605712890625","3.479003667831421","0.6713866591453552","42.358394622802734","0","1","-22","2"
12995,"-0.8095703125","0.6861572265625","-0.6956787109375","38.14697265625","-5.126952648162842","29.296873092651367","0","1","-22","2"
13031,"-0.63916015625","0.474853515625","-0.7039794921875","149.2919921875","-16.2353515625","46.447750091552734","0","1","-22","2"
13062,"-0.5703125","0.138916015625","-0.667724609375","135.7421875","-22.766111373901367","25.512693405151367","4","2","-15","2"
13093,"-0.6854248046875","0.1075439453125","-0.641845703125","58.105464935302734","-28.076169967651367","-8.72802734375","4","2","-15","2"
13124,"-0.8170166015625","0.3369140625","-0.6329345703125","1.4038084745407104","-27.038572311401367","-14.587401390075684","4","2","-15","2"
13155,"-0.8486328125","0.427001953125","-0.5804443359375","3.479003667831421","-17.7001953125","-3.784179449081421","6","-5","-18","2"
13186,"-0.6787109375","0.27099609375","-0.5478515625","26.184080123901367","-7.629394054412842","-0.4882812201976776","6","-5","-18","2"
13218,"-0.560302734375","0.1865234375","-0.5299072265625","24.536130905151367","-2.3193359375","2.13623046875","6","-5","-18","2"
13254,"-0.5400390625","0.14306640625","-0.5155029296875","-10.437010765075684","8.4228515625","-1.5869139432907104","6","-3","-8","2"
13285,"-0.54296875","0.199462890625","-0.494140625","-40.283199310302734","15.136717796325684","-5.065917491912842","6","-3","-8","2"
13316,"-0.5947265625","0.294189453125","-0.531494140625","-44.921871185302734","22.338865280151367","-1.9531248807907104","6","-3","-8","2"
13347,"-0.6221923828125","0.3828125","-0.5518798828125","-29.907224655151367","27.648923873901367","3.845214605331421","9","-5","-16","2"
13378,"-0.643310546875","0.4014892578125","-0.5615234375","14.038084983825684","38.87939453125","26.977537155151367","9","-5","-16","2"
13409,"-0.65966796875","0.325927734375","-0.573974609375","21.179197311401367","38.87939453125","34.66796875","9","-5","-16","2"
13440,"-0.7467041015625","0.28125","-0.593505859375","-11.047362327575684","34.72900390625","36.43798828125","6","-4","-12","2"
13471,"-0.8541259765625","0.33447265625","-0.630126953125","-34.72900390625","38.4521484375","30.212400436401367","6","-4","-12","2"
13502,"-0.85791015625","0.3912353515625","-0.636962890625","-57.983394622802734","42.846675872802734","28.625486373901367","6","-4","-12","2"
13534,"-0.9505615234375","0.391845703125","-0.62353515625","-54.626461029052734","39.97802734375","24.108884811401367","6","-4","-12","2"
13565,"-1.0902099609375","0.4158935546875","-0.650146484375","-37.4755859375","29.113767623901367","11.962889671325684","6","-4","-13","2"
13596,"-0.9879150390625","0.2735595703125","-0.6595458984375","-21.179197311401367","42.236324310302734","12.878417015075684","6","-4","-13","2"
13627,"-0.8426513671875","0.10791015625","-0.5775146484375","-44.555660247802734","43.212886810302734","4.0283203125","6","-4","-13","2"
13658,"-0.86865234375","0.13330078125","-0.5478515625","-84.04540252685547","20.324705123901367","-20.324705123901367","6","-6","-11","2"
13694,"-1.0926513671875","0.3536376953125","-0.589599609375","-111.81639862060547","14.831542015075684","-18.12744140625","6","-6","-11","2"
13725,"-1.03369140625","0.3929443359375","-0.5196533203125","-98.20555877685547","17.27294921875","-11.596678733825684","6","-6","-11","2"
13756,"-0.8172607421875","0.3140869140625","-0.4249267578125","-51.818843841552734","10.986327171325684","-14.770506858825684","3","-6","-13","2"
13791,"-0.6624755859375","0.0946044921875","-0.3709716796875","-31.188962936401367","-10.253905296325684","-39.4287109375","3","-6","-13","2"
13825,"-0.66943359375","0.119140625","-0.3548583984375","-62.499996185302734","-16.9677734375","-54.748531341552734","3","-6","-13","2"
13860,"-0.7052001953125","0.1920166015625","-0.3280029296875","-53.894039154052734","-19.775390625","-42.297359466552734","1","-5","-13","2"
13891,"-0.7489013671875","0.1900634765625","-0.3172607421875","-35.15625","-23.803709030151367","-35.33935546875","1","-5","-13","2"
13922,"-0.82080078125","0.1708984375","-0.3270263671875","-19.53125","-25.695798873901367","-33.26416015625","1","-5","-13","2"
13955,"-0.8319091796875","0.177001953125","-0.3255615234375","-11.047362327575684","-21.911619186401367","-27.160642623901367","4","-5","-13","2"
13986,"-0.8804931640625","0.1468505859375","-0.347412109375","1.8310545682907104","-19.34814453125","-16.845703125","4","-5","-13","2"
14017,"-0.94873046875","0.1011962890625","-0.3565673828125","8.4228515625","-15.075682640075684","-12.512206077575684","4","-5","-13","2"
14048,"-1.017578125","0.1075439453125","-0.4093017578125","10.375975608825684","-5.737304210662842","3.112792730331421","3","-5","-11","2"
14080,"-1.0345458984375","0.0875244140625","-0.4619140625","7.812499523162842","-2.563476324081421","11.840819358825684","3","-5","-11","2"
14111,"-1.0169677734375","0.1302490234375","-0.533935546875","-4.39453125","-5.554198741912842","27.099607467651367","3","-5","-11","2"
14142,"-1.1256103515625","0.251953125","-0.559326171875","14.343260765075684","-18.1884765625","31.066892623901367","4","-9","-13","2"
14174,"-0.9893798828125","0.3050537109375","-0.566650390625","67.0166015625","-16.41845703125","32.04345703125","4","-9","-13","2"
14205,"-0.6859130859375","0.026611328125","-0.5782470703125","109.00878143310547","-14.404295921325684","26.855466842651367","4","-9","-13","2"
14236,"-0.6602783203125","-0.195068359375","-0.600830078125","69.03076171875","-25.024412155151367","8.544921875","4","-9","-13","2"
14267,"-0.96923828125","0.265869140625","-0.607177734375","31.127927780151367","-30.090330123901367","13.000487327575684","6","-5","-11","2"
14299,"-0.9635009765625","0.36572265625","-0.5751953125","57.006832122802734","-22.705076217651367","25.756834030151367","6","-5","-11","2"
14330,"-0.74560546875","0.1865234375","-0.5706787109375","90.27098846435547","-14.526366233825684","35.5224609375","6","-5","-11","2"
14361,"-0.5867919921875","0.057373046875","-0.522705078125","77.45361328125","-7.446288585662842","34.48486328125","10","-3","-3","2"
14392,"-0.5758056640625","0.1282958984375","-0.5010986328125","36.865234375","-9.1552734375","23.559568405151367","10","-3","-3","2"
14423,"-0.6573486328125","0.3167724609375","-0.5186767578125","17.76123046875","-0.6713866591453552","28.503416061401367","10","-3","-3","2"
14454,"-0.620361328125","0.2410888671875","-0.519775390625","13.427733421325684","8.30078125","32.470703125","9","0","-8","2"
14485,"-0.6429443359375","0.2681884765625","-0.5411376953125","0.8544921278953552","5.798339366912842","23.803709030151367","9","0","-8","2"
14516,"-0.6556396484375","0.30859375","-0.566162109375","-0.6103515625","12.268065452575684","21.301267623901367","9","0","-8","2"
14548,"-0.644287109375","0.291259765625","-0.5823974609375","-1.4038084745407104","15.136717796325684","24.169919967651367","8","4","1","2"
14579,"-0.7550048828125","0.2822265625","-0.613525390625","-13.061522483825684","8.6669921875","18.1884765625","8","4","1","2"
14610,"-0.887939453125","0.3607177734375","-0.6444091796875","-20.324705123901367","8.97216796875","15.624999046325684","8","4","1","2"
14641,"-0.9537353515625","0.40087890625","-0.6568603515625","-9.33837890625","13.610838890075684","14.038084983825684","8","8","-5","2"
14673,"-1.06103515625","0.358642578125","-0.6890869140625","5.737304210662842","14.770506858825684","7.080077648162842","8","8","-5","2"
14708,"-0.9647216796875","0.265380859375","-0.7130126953125","-8.4228515625","27.343748092651367","-1.0986328125","8","8","-5","2"
14739,"-0.822509765625","0.22412109375","-0.65234375","-23.132322311401367","26.123044967651367","-9.09423828125","8","8","-5","2"
14775,"-0.777099609375","0.19384765625","-0.6072998046875","-46.325679779052734","13.793944358825684","-22.460935592651367","13","3","-7","2"
14806,"-1.0006103515625","0.2518310546875","-0.6170654296875","-67.68798828125","0.6713866591453552","-34.60693359375","13","3","-7","2"
14837,"-1.029296875","0.3402099609375","-0.5943603515625","-74.76806640625","5.615233898162842","-29.907224655151367","13","8","-10","2"
14872,"-0.8426513671875","0.291748046875","-0.52099609375","-47.058101654052734","2.563476324081421","-33.203125","13","8","-10","2"
14907,"-0.68017578125","0.171875","-0.4549560546875","-42.785640716552734","-8.056640625","-42.846675872802734","13","8","-10","2"
14938,"-0.6219482421875","0.154296875","-0.39892578125","-47.607418060302734","-25.451658248901367","-60.729976654052734","13","8","-10","2"
14969,"-0.7003173828125","0.2091064453125","-0.3831787109375","-36.62109375","-31.982419967651367","-60.180660247802734","13","-3","-7","2"
15000,"-0.750244140625","0.1937255859375","-0.341796875","-15.930174827575684","-34.1796875","-53.649898529052734","13","-3","-7","2"
15032,"-0.799072265625","0.1614990234375","-0.339111328125","-10.925292015075684","-33.50830078125","-49.255367279052734","13","-3","-7","2"
15064,"-0.8131103515625","0.1231689453125","-0.33154296875","-9.70458984375","-24.475095748901367","-35.400390625","15","1","-15","2"
15095,"-0.8580322265625","0.135009765625","-0.3592529296875","-11.169432640075684","-20.202634811401367","-30.151365280151367","15","1","-15","2"
15126,"-0.9464111328125","0.18115234375","-0.36328125","-6.652831554412842","-8.72802734375","-13.916014671325684","15","1","-15","2"
15157,"-1.0322265625","0.2117919921875","-0.3961181640625","-4.0283203125","-0.54931640625","-2.50244140625","15","1","-13","2"
15188,"-1.00537109375","0.1810302734375","-0.42529296875","2.25830078125","18.06640625","18.310546875","15","1","-13","2"
15222,"-0.9581298828125","0.1524658203125","-0.4849853515625","-6.164550304412842","26.367185592651367","27.282712936401367","15","1","-13","2"
15253,"-1.0283203125","0.205810546875","-0.544189453125","-11.962889671325684","22.521970748901367","31.860349655151367","15","2","-13","2"
15284,"-0.985107421875","0.31787109375","-0.580078125","-5.065917491912842","20.141599655151367","41.442867279052734","15","2","-13","2"
15319,"-0.7840576171875","0.2757568359375","-0.587158203125","38.39111328125","24.536130905151367","46.386714935302734","15","2","-13","2"
15352,"-0.5577392578125","0.0472412109375","-0.6025390625","49.072261810302734","20.996091842651367","39.24560546875","15","0","-14","2"
15383,"-0.69873046875","0.025634765625","-0.6685791015625","12.939452171325684","4.150390625","17.822265625","15","0","-14","2"
15414,"-0.9453125","0.32763671875","-0.685791015625","3.173827886581421","-4.57763671875","21.362302780151367","15","0","-14","2"
15446,"-0.885986328125","0.3616943359375","-0.64599609375","26.367185592651367","-3.356933355331421","18.73779296875","15","0","-14","2"
15477,"-0.695068359375","0.1474609375","-0.6077880859375","68.05419921875","-9.46044921875","14.831542015075684","17","0","-12","2"
15508,"-0.6102294921875","0.073974609375","-0.5504150390625","45.288082122802734","-16.4794921875","-4.2724609375","17","0","-12","2"
15539,"-0.6422119140625","0.1597900390625","-0.5203857421875","15.991209983825684","-12.084959983825684","-10.681151390075684","16","-1","-11","2"
15575,"-0.635498046875","0.2314453125","-0.488525390625","12.023924827575684","-5.310058116912842","-3.479003667831421","16","-1","-11","2"
15610,"-0.65869140625","0.2122802734375","-0.4957275390625","11.047362327575684","-3.601073980331421","3.112792730331421","16","-1","-11","2"
15642,"-0.670654296875","0.2005615234375","-0.5184326171875","2.0751953125","1.9531248807907104","7.263183116912842","16","-1","-11","2"
15678,"-0.64599609375","0.25830078125","-0.5211181640625","-6.591796398162842","11.474608421325684","8.6669921875","15","2","-12","2"
15712,"-0.7523193359375","0.269775390625","-0.56298828125","3.295898199081421","6.835937023162842","9.1552734375","15","2","-12","2"
15743,"-0.864013671875","0.271728515625","-0.6026611328125","0.8544921278953552","10.009765625","13.916014671325684","15","2","-12","2"
15774,"-0.874267578125","0.2586669921875","-0.631591796875","-20.751951217651367","24.475095748901367","12.634276390075684","16","3","-15","2"
15808,"-0.854736328125","0.29443359375","-0.6590576171875","-22.583005905151367","32.8369140625","12.756346702575684","16","3","-15","2"
15839,"-0.977294921875","0.3099365234375","-0.7000732421875","-19.8974609375","24.902341842651367","7.507323741912842","16","3","-15","2"
15870,"-0.993408203125","0.318603515625","-0.7406005859375","-27.526853561401367","32.89794921875","5.920409679412842","15","4","-13","2"
15905,"-0.7891845703125","0.212890625","-0.6368408203125","-39.73388671875","27.893064498901367","-9.765625","15","4","-13","2"
15939,"-0.8782958984375","0.270751953125","-0.604248046875","-59.326168060302734","0.30517578125","-38.63525390625","15","4","-13","2"
15970,"-1.0902099609375","0.4178466796875","-0.617431640625","-63.781734466552734","-6.286620616912842","-40.0390625","14","0","-16","2"
16001,"-1.0810546875","0.3814697265625","-0.567626953125","-59.509273529052734","-0.7324218153953552","-33.203125","14","0","-16","2"
16032,"-0.8955078125","0.3438720703125","-0.4981689453125","-43.457027435302734","0.9155272841453552","-36.865234375","14","0","-16","2"
16063,"-0.6766357421875","0.2340087890625","-0.420654296875","-36.9873046875","-9.27734375","-48.095699310302734","10","6","-15","2"
16094,"-0.5931396484375","0.2158203125","-0.3663330078125","-62.377925872802734","-26.306150436401367","-78.18603515625","10","6","-15","2"
16125,"-0.6226806640625","0.2724609375","-0.35888671875","-59.082027435302734","-32.65380859375","-79.52880859375","10","6","-15","2"
16156,"-0.729248046875","0.265869140625","-0.3385009765625","-42.175289154052734","-38.330078125","-76.171875","10","8","-24","2"
16187,"-0.791015625","0.237548828125","-0.339111328125","-29.357908248901367","-38.818359375","-66.46728515625","10","8","-24","2"
16218,"-0.8280029296875","0.2025146484375","-0.334228515625","-18.85986328125","-33.50830078125","-47.607418060302734","10","8","-24","2"
16249,"-0.88623046875","0.1998291015625","-0.358642578125","-15.624999046325684","-28.442380905151367","-38.14697265625","9","0","-16","2"
16285,"-0.93505859375","0.1962890625","-0.367919921875","-9.09423828125","-14.038084983825684","-21.362302780151367","9","0","-16","2"
16316,"-0.95361328125","0.217041015625","-0.3826904296875","-1.7700194120407104","-2.746581792831421","-5.126952648162842","9","0","-16","2"
16347,"-0.93701171875","0.1942138671875","-0.4124755859375","2.197265625","8.9111328125","11.657713890075684","9","0","-16","2"
16378,"-0.873779296875","0.1729736328125","-0.4417724609375","-0.3662109076976776","18.37158203125","24.047849655151367","8","1","-17","2"
16409,"-1.077880859375","0.2623291015625","-0.5069580078125","-3.051757574081421","12.145995140075684","32.65380859375","8","1","-17","2"
16440,"-0.978271484375","0.3515625","-0.4661865234375","26.611326217651367","25.756834030151367","57.189937591552734","7","4","-17","2"
16471,"-0.7449951171875","0.184326171875","-0.45068359375","61.828609466552734","30.944822311401367","61.462398529052734","7","4","-17","2"
16502,"-0.792724609375","-0.106201171875","-0.5494384765625","53.833003997802734","27.221677780151367","50.598140716552734","7","4","-17","2"
16534,"-1.061767578125","-0.041015625","-0.6685791015625","-31.433103561401367","37.4755859375","38.75732421875","7","4","-17","2"
16569,"-1.03466796875","0.2808837890625","-0.6048583984375","-64.39208984375","55.480953216552734","34.912109375","8","5","-18","2"
16605,"-0.80419921875","0.302490234375","-0.5020751953125","-17.63916015625","55.175777435302734","34.85107421875","8","5","-18","2"
16636,"-0.6815185546875","0.0665283203125","-0.482177734375","11.047362327575684","48.095699310302734","34.97314453125","8","5","-18","2"
16667,"-0.6807861328125","0.1217041015625","-0.4793701171875","-16.41845703125","44.433589935302734","24.169919967651367","6","8","-20","2"
16701,"-0.6763916015625","0.2374267578125","-0.5076904296875","-39.85595703125","50.476070404052734","9.94873046875","6","8","-20","2"
16732,"-0.6617431640625","0.2325439453125","-0.523681640625","-39.85595703125","47.119136810302734","9.33837890625","6","8","-20","2"
16763,"-0.6611328125","0.29638671875","-0.54541015625","-34.36279296875","34.36279296875","2.50244140625","5","8","-19","2"
16794,"-0.706787109375","0.2744140625","-0.5946044921875","-9.1552734375","28.015134811401367","1.15966796875","5","8","-19","2"
16887,"-0.856201171875","0.2467041015625","-0.60595703125","-19.4091796875","0.6713866591453552","-24.475095748901367","4","12","-20","2"
16922,"-0.9222412109375","0.2445068359375","-0.59619140625","-31.372068405151367","-9.09423828125","-36.7431640625","4","12","-20","2"
16953,"-1.021240234375","0.294189453125","-0.614990234375","-20.812986373901367","-12.878417015075684","-46.691890716552734","2","8","-16","2"
16984,"-1.1025390625","0.3184814453125","-0.640625","-8.30078125","-14.831542015075684","-43.823238372802734","2","8","-16","2"
17018,"-0.9871826171875","0.22314453125","-0.584716796875","-11.291502952575684","-4.7607421875","-35.400390625","2","8","-16","2"
17054,"-0.856689453125","0.1253662109375","-0.499267578125","-34.60693359375","-13.488768577575684","-58.593746185302734","6","13","-21","2"
17085,"-1.0308837890625","0.20263671875","-0.5343017578125","-76.7822265625","-27.160642623901367","-77.0263671875","6","13","-21","2"
17116,"-1.0963134765625","0.3328857421875","-0.5867919921875","-108.70360565185547","-30.212400436401367","-75.62255859375","6","13","-21","2"
17147,"-1.0545654296875","0.4261474609375","-0.5267333984375","-120.91063690185547","-20.935056686401367","-66.58935546875","6","13","-21","2"
17178,"-0.8770751953125","0.469970703125","-0.4530029296875","-81.35985565185547","-23.498533248901367","-63.110347747802734","5","12","-23","2"
17209,"-0.717529296875","0.4046630859375","-0.3853759765625","-50.659175872802734","-32.958984375","-53.833003997802734","5","12","-23","2"
17242,"-0.603515625","0.2911376953125","-0.318115234375","-48.706050872802734","-52.001949310302734","-68.7255859375","5","12","-23","2"
17278,"-0.66650390625","0.343017578125","-0.328369140625","-33.87451171875","-69.091796875","-76.904296875","4","16","-24","2"
17314,"-0.6932373046875","0.341796875","-0.296630859375","-8.72802734375","-72.021484375","-61.218257904052734","4","16","-24","2"
17350,"-0.7379150390625","0.326416015625","-0.2928466796875","4.638671875","-69.82421875","-45.043941497802734","4","13","-26","2"
17381,"-0.80712890625","0.3017578125","-0.3172607421875","22.766111373901367","-58.654781341552734","-23.254392623901367","4","13","-26","2"
17412,"-0.86669921875","0.28515625","-0.3203125","33.69140625","-48.461910247802734","-4.57763671875","4","13","-26","2"
17444,"-0.931640625","0.12451171875","-0.339599609375","28.869626998901367","-38.818359375","12.634276390075684","4","13","-26","2"
17475,"-0.9908447265625","0.0057373046875","-0.3681640625","-33.5693359375","11.169432640075684","50.537105560302734","6","11","-32","2"
17506,"-1.039306640625","0.150146484375","-0.456787109375","-61.340328216552734","30.578611373901367","42.114253997802734","6","11","-32","2"
17541,"-1.243896484375","0.2364501953125","-0.591064453125","-66.10107421875","60.913082122802734","54.260250091552734","6","11","-32","2"
17572,"-1.170166015625","0.3006591796875","-0.6019287109375","-55.603023529052734","100.40282440185547","77.69775390625","1","16","-28","2"
17603,"-0.8563232421875","0.1973876953125","-0.5084228515625","-17.51708984375","116.02782440185547","85.38817596435547","1","16","-28","2"
17639,"-0.88037109375","0.0294189453125","-0.5997314453125","5.615233898162842","77.57568359375","45.166011810302734","1","16","-28","2"
17670,"-1.0032958984375","0.232177734375","-0.630615234375","3.417968511581421","67.138671875","37.109375","-1","24","-26","2"
17701,"-0.97265625","0.4337158203125","-0.59130859375","58.654781341552734","68.05419921875","55.053707122802734","-1","24","-26","2"
17732,"-0.8360595703125","0.363525390625","-0.54296875","126.03759002685547","64.02587890625","61.279293060302734","-1","24","-26","2"
17763,"-0.6715087890625","0.2222900390625","-0.52490234375","163.57420349121094","50.964351654052734","57.250972747802734","1","24","-25","2"
17794,"-0.615966796875","0.1075439453125","-0.523193359375","146.240234375","35.0341796875","43.090816497802734","1","24","-25","2"
17828,"-0.6727294921875","0.121337890625","-0.537109375","63.842769622802734","39.97802734375","29.357908248901367","1","24","-25","2"
17863,"-0.633056640625","0.09912109375","-0.505126953125","-27.709959030151367","46.508785247802734","9.70458984375","1","30","-26","2"
17894,"-0.6651611328125","0.3115234375","-0.6209716796875","-31.066892623901367","35.2783203125","22.338865280151367","1","30","-26","2"
17925,"-0.712646484375","0.3326416015625","-0.647705078125","3.479003667831421","31.982419967651367","35.94970703125","1","30","-26","2"
17957,"-0.7869873046875","0.28662109375","-0.6856689453125","6.835937023162842","26.733396530151367","31.127927780151367","-2","33","-22","2"
17988,"-0.881591796875","0.261962890625","-0.705322265625","-12.329100608825684","20.385740280151367","17.7001953125","-2","33","-22","2"
18023,"-0.937255859375","0.220458984375","-0.6553955078125","-45.288082122802734","2.3193359375","-17.578125","-2","33","-22","2"
18059,"-1.01171875","0.3135986328125","-0.67333984375","-49.499507904052734","-9.6435546875","-42.785640716552734","-2","36","-25","2"
18095,"-1.103271484375","0.302978515625","-0.6846923828125","-33.02001953125","-20.935056686401367","-48.461910247802734","-2","36","-25","2"
18130,"-0.868408203125","0.2789306640625","-0.5516357421875","-40.222164154052734","-16.9677734375","-50.292964935302734","-2","36","-25","2"
18161,"-0.7052001953125","0.177001953125","-0.4698486328125","-44.372554779052734","-31.982419967651367","-67.81005859375","-1","34","-27","2"
18195,"-0.965576171875","0.347900390625","-0.49072265625","-41.809078216552734","-63.110347747802734","-71.044921875","-1","34","-27","2"
18231,"-1.2022705078125","0.34521484375","-0.5191650390625","-83.92333221435547","-60.852046966552734","-57.006832122802734","-1","34","-27","2"
18262,"-1.1778564453125","0.537109375","-0.43896484375","-90.82030487060547","-45.104976654052734","-35.46142578125","1","22","-35","2"
18293,"-0.9560546875","0.5634765625","-0.3192138671875","-15.624999046325684","-48.950191497802734","-15.014647483825684","1","22","-35","2"
18328,"-0.81591796875","0.236328125","-0.279052734375","5.0048828125","-68.17626953125","-53.710933685302734","1","22","-35","2"
18359,"-0.80419921875","0.2325439453125","-0.27880859375","-15.747069358825684","-78.61328125","-89.11132049560547","2","25","-35","2"
18390,"-0.8558349609375","0.30517578125","-0.2669677734375","-16.29638671875","-78.18603515625","-100.15868377685547","2","25","-35","2"
18421,"-0.86767578125","0.3079833984375","-0.2481689453125","-2.990722417831421","-80.2001953125","-104.55321502685547","2","25","-35","2"
18452,"-0.8721923828125","0.2645263671875","-0.2520751953125","1.7700194120407104","-75.13427734375","-101.74559783935547","6","18","-46","2"
18488,"-0.8546142578125","0.2225341796875","-0.2484130859375","7.141112804412842","-51.330562591552734","-79.16259765625","6","18","-46","2"
18519,"-0.851806640625","0.2027587890625","-0.249755859375","9.1552734375","-24.414060592651367","-52.246089935302734","6","18","-46","2"
18554,"-0.880126953125","0.1953125","-0.2626953125","8.544921875","6.286620616912842","-19.71435546875","5","12","-48","2"
18585,"-0.87255859375","0.1663818359375","-0.388427734375","-19.95849609375","27.954099655151367","8.056640625","5","12","-48","2"
18616,"-0.95458984375","0.1815185546875","-0.4658203125","-54.382320404052734","50.415035247802734","32.3486328125","5","12","-48","2"
18647,"-1.1021728515625","0.3626708984375","-0.5352783203125","-71.1669921875","72.69287109375","55.480953216552734","5","12","-48","2"
18678,"-0.98291015625","0.4036865234375","-0.5531005859375","-52.124019622802734","102.84423065185547","86.60887908935547","-2","16","-41","2"
18709,"-0.74951171875","0.2109375","-0.550537109375","-38.6962890625","105.22460174560547","99.18212127685547","-2","16","-41","2"
18740,"-0.847412109375","0.1744384765625","-0.6260986328125","-39.00146484375","49.804683685302734","54.626461029052734","-2","16","-41","2"
18771,"-1.1016845703125","0.5955810546875","-0.529052734375","0.2441406100988388","50.964351654052734","63.964839935302734","-8","16","-40","2"
18802,"-0.954345703125","0.5574951171875","-0.5921630859375","88.74510955810547","80.2001953125","120.91063690185547","-8","16","-40","2"
18833,"-0.7208251953125","0.263916015625","-0.6260986328125","125.24413299560547","79.52880859375","118.16405487060547","-8","16","-40","2"
18866,"-0.6217041015625","0.088134765625","-0.59228515625","141.17431640625","61.889644622802734","90.75926971435547","-4","27","-35","2"
18897,"-0.6656494140625","0.054443359375","-0.5687255859375","84.22850799560547","29.907224655151367","48.156734466552734","-4","27","-35","2"
18932,"-0.682861328125","0.20556640625","-0.6158447265625","34.0576171875","30.578611373901367","26.977537155151367","-4","27","-35","2"
18963,"-0.5845947265625","0.2200927734375","-0.613525390625","12.878417015075684","60.241695404052734","32.89794921875","-5","29","-34","2"
18994,"-0.6180419921875","0.211181640625","-0.6153564453125","10.131834983825684","18.6767578125","15.014647483825684","-5","29","-34","2"
19025,"-0.712158203125","0.30029296875","-0.59716796875","35.64453125","14.160155296325684","12.207030296325684","-5","29","-34","2"
19057,"-0.77392578125","0.17578125","-0.6031494140625","29.052732467651367","2.868652105331421","8.1787109375","-7","32","-33","2"
19093,"-0.87353515625","0.1666259765625","-0.5828857421875","-41.687007904052734","-29.174802780151367","-20.874021530151367","-7","32","-33","2"
19186,"-1.1949462890625","0.3603515625","-0.6588134765625","-19.1650390625","-21.728513717651367","-33.87451171875","-10","25","-38","2"
19258,"-0.8079833984375","0.052734375","-0.4537353515625","-44.555660247802734","-11.962889671325684","-59.326168060302734","-11","32","-38","2"
19289,"-1.013916015625","0.3741455078125","-0.49560546875","-112.30467987060547","-26.855466842651367","-90.94237518310547","-11","32","-38","2"
19320,"-1.1185302734375","0.373291015625","-0.544921875","-112.85399627685547","-15.563963890075684","-47.058101654052734","-11","32","-38","2"
19351,"-0.978271484375","0.3846435546875","-0.430908203125","-137.75634765625","-2.197265625","-39.36767578125","-16","25","-37","2"
19382,"-0.775146484375","0.40478515625","-0.3614501953125","-114.56298065185547","-5.0048828125","-37.4755859375","-16","25","-37","2"
19418,"-0.66259765625","0.3046875","-0.3160400390625","-73.18115234375","-25.756834030151367","-39.0625","-16","25","-37","2"
19453,"-0.6552734375","0.2457275390625","-0.27783203125","-82.21434783935547","-47.119136810302734","-68.54248046875","-16","25","-37","2"
19489,"-0.7415771484375","0.358154296875","-0.267822265625","-64.75830078125","-57.312007904052734","-72.6318359375","-18","25","-40","2"
19520,"-0.8255615234375","0.3631591796875","-0.2630615234375","-42.053218841552734","-62.194820404052734","-62.011714935302734","-18","25","-40","2"
19551,"-0.8956298828125","0.3638916015625","-0.29931640625","-22.521970748901367","-49.865718841552734","-47.058101654052734","-21","25","-39","2"
19582,"-0.9017333984375","0.32177734375","-0.3245849609375","-6.713866710662842","-39.97802734375","-35.64453125","-21","25","-39","2"
19613,"-0.9267578125","0.247314453125","-0.322265625","7.446288585662842","-20.141599655151367","-24.902341842651367","-21","25","-39","2"
19644,"-0.98681640625","0.2249755859375","-0.39013671875","-2.868652105331421","-8.4228515625","-23.193357467651367","-21","25","-39","2"
19677,"-0.94677734375","0.177978515625","-0.462158203125","-22.399900436401367","11.108397483825684","-15.380858421325684","-22","26","-34","2"
19708,"-0.9093017578125","0.10693359375","-0.4708251953125","-37.353515625","21.057126998901367","-3.356933355331421","-22","26","-34","2"
19739,"-1.051025390625","0.0589599609375","-0.522705078125","-58.044429779052734","19.53125","2.44140625","-22","26","-34","2"
19770,"-0.9996337890625","0.1307373046875","-0.5574951171875","-67.44384765625","39.4287109375","7.690429210662842","-23","30","-39","2"
19801,"-0.8614501953125","0.1666259765625","-0.47021484375","-29.724119186401367","49.194332122802734","10.864256858825684","-23","30","-39","2"
19832,"-0.9468994140625","0.04443359375","-0.5775146484375","4.45556640625","38.57421875","20.446775436401367","-23","30","-39","2"
19863,"-0.9866943359375","0.081298828125","-0.626708984375","0.6103515625","42.724605560302734","29.113767623901367","-24","33","-36","2"
19898,"-0.8590087890625","0.1761474609375","-0.5777587890625","-0.7934569716453552","48.889156341552734","38.57421875","-24","33","-36","2"
19933,"-0.7156982421875","0.2298583984375","-0.4952392578125","33.0810546875","45.593257904052734","41.870113372802734","-24","33","-36","2"
19964,"-0.6246337890625","0.18701171875","-0.500244140625","72.265625","32.8369140625","39.6728515625","-27","31","-35","2"
20000,"-0.6619873046875","0.1158447265625","-0.545166015625","70.1904296875","21.057126998901367","32.958984375","-27","31","-35","2"
20033,"-0.65478515625","0.1397705078125","-0.539306640625","37.109375","28.747556686401367","34.66796875","-27","31","-35","2"
20069,"-0.62548828125","0.147216796875","-0.5721435546875","-0.54931640625","35.21728515625","21.240232467651367","-30","33","-32","2"
20104,"-0.6905517578125","0.2021484375","-0.59375","-11.230467796325684","31.555173873901367","9.94873046875","-30","33","-32","2"
20135,"-0.720458984375","0.2393798828125","-0.6116943359375","-8.11767578125","31.860349655151367","6.103515148162842","-30","33","-32","2"
20169,"-0.787841796875","0.248291015625","-0.64453125","-2.3193359375","31.433103561401367","7.080077648162842","-27","37","-27","2"
20200,"-0.8236083984375","0.2412109375","-0.64892578125","-12.207030296325684","25.817869186401367","7.263183116912842","-27","37","-27","2"
20231,"-0.899658203125","0.2916259765625","-0.6290283203125","-20.751951217651367","11.596678733825684","-0.7324218153953552","-27","37","-27","2"
20262,"-0.9581298828125","0.33740234375","-0.6322021484375","-7.385253429412842","10.498045921325684","-10.437010765075684","-29","33","-32","2"
20293,"-1.0576171875","0.341552734375","-0.6646728515625","13.244627952575684","5.065917491912842","-16.6015625","-29","33","-32","2"
20324,"-1.025634765625","0.2835693359375","-0.699951171875","8.1787109375","8.97216796875","-20.01953125","-29","33","-32","2"
20355,"-0.8328857421875","0.1605224609375","-0.6068115234375","-19.95849609375","11.108397483825684","-31.127927780151367","-25","33","-28","2"
20387,"-0.798583984375","0.1429443359375","-0.506591796875","-57.434078216552734","-9.1552734375","-59.570308685302734","-25","33","-28","2"
20418,"-1.06396484375","0.316162109375","-0.5640869140625","-85.44921112060547","-42.541500091552734","-82.82469940185547","-25","33","-28","2"
20449,"-1.143310546875","0.4100341796875","-0.5458984375","-85.38817596435547","-43.945308685302734","-72.93701171875","-25","33","-28","2"
20483,"-1.0009765625","0.4302978515625","-0.443603515625","-60.058589935302734","-35.33935546875","-53.283687591552734","-15","27","-21","2"
20519,"-0.831787109375","0.349609375","-0.375732421875","-17.39501953125","-34.48486328125","-43.090816497802734","-15","27","-21","2"
20550,"-0.6929931640625","0.240478515625","-0.3192138671875","-8.7890625","-47.424312591552734","-56.274410247802734","-8","21","-23","2"
20581,"-0.70751953125","0.213623046875","-0.3402099609375","-21.118162155151367","-63.598628997802734","-75.62255859375","-8","21","-23","2"
20614,"-0.8031005859375","0.2769775390625","-0.331787109375","-30.883787155151367","-58.532711029052734","-71.47216796875","-8","21","-23","2"
20649,"-0.7615966796875","0.2884521484375","-0.307861328125","-24.230955123901367","-56.518550872802734","-65.00244140625","-8","21","-23","2"
20681,"-0.7965087890625","0.2724609375","-0.3231201171875","-11.657713890075684","-57.434078216552734","-60.913082122802734","-9","16","-38","2"
20713,"-0.8284912109375","0.271240234375","-0.317138671875","0.9765624403953552","-45.837398529052734","-50.903316497802734","-9","16","-38","2"
20748,"-0.852783203125","0.2861328125","-0.326904296875","18.49365234375","-28.686521530151367","-29.113767623901367","-10","14","-41","2"
20779,"-0.924560546875","0.245849609375","-0.366943359375","21.850584030151367","-18.00537109375","-13.793944358825684","-10","14","-41","2"
20810,"-0.942138671875","0.0889892578125","-0.447265625","-30.151365280151367","17.76123046875","21.667478561401367","-10","14","-41","2"
20846,"-0.9932861328125","-0.154296875","-0.4798583984375","-132.62939453125","42.480464935302734","47.058101654052734","-10","14","-41","2"
20877,"-1.1922607421875","-0.3023681640625","-0.5538330078125","-292.41943359375","68.05419921875","65.61279296875","-20","21","-34","2"
20908,"-1.0516357421875","0.3394775390625","-0.783203125","-295.47119140625","97.77831268310547","27.526853561401367","-20","21","-34","2"
20942,"-0.7757568359375","0.3912353515625","-0.559326171875","-88.98925018310547","123.65721893310547","15.686034202575684","-20","21","-34","2"
20978,"-0.8992919921875","-0.0352783203125","-0.6138916015625","35.58349609375","89.53856658935547","61.157222747802734","-30","24","-31","2"
21009,"-0.977783203125","0.1824951171875","-0.614013671875","72.509765625","55.358882904052734","45.166011810302734","-30","24","-31","2"
21040,"-0.906982421875","0.232177734375","-0.572509765625","106.01805877685547","53.283687591552734","56.579586029052734","-30","24","-31","2"
21073,"-0.74072265625","0.055419921875","-0.5396728515625","107.72704315185547","46.020503997802734","50.964351654052734","-30","26","-34","2"
21109,"-0.6500244140625","0.044921875","-0.5364990234375","89.96581268310547","37.9638671875","14.953612327575684","-30","26","-34","2"
21140,"-0.660400390625","0.082763671875","-0.5743408203125","81.11571502685547","37.41455078125","13.061522483825684","-30","26","-34","2"
21171,"-0.6910400390625","-0.003173828125","-0.6002197265625","34.72900390625","47.485347747802734","31.494138717651367","-29","31","-27","2"
21202,"-0.6619873046875","0.0408935546875","-0.6260986328125","-13.122557640075684","45.166011810302734","18.73779296875","-29","31","-27","2"
21234,"-0.6591796875","0.1270751953125","-0.638671875","-26.672361373901367","41.076656341552734","6.469726085662842","-29","31","-27","2"
21358,"-0.946044921875","0.1964111328125","-0.6749267578125","38.26904296875","-16.357421875","-15.441893577575684","-31","33","-27","2"
21389,"-0.9840087890625","0.207763671875","-0.67626953125","45.471187591552734","-15.686034202575684","-19.34814453125","-31","33","-27","2"
21420,"-1.0845947265625","0.197509765625","-0.7222900390625","46.813961029052734","-23.132322311401367","-27.832029342651367","-31","33","-27","2"
21451,"-1.0262451171875","0.1422119140625","-0.65380859375","26.550291061401367","-9.94873046875","-26.000974655151367","-30","34","-25","2"
21513,"-0.979248046875","0.19091796875","-0.6217041015625","-31.921384811401367","-64.27001953125","-90.63719940185547","-30","34","-25","2"
21544,"-1.2999267578125","0.4075927734375","-0.6756591796875","-33.38623046875","-73.42529296875","-72.32666015625","-30","34","-25","2"
21577,"-1.219482421875","0.405517578125","-0.578857421875","-21.667478561401367","-54.992671966552734","-52.612300872802734","-23","43","-27","2"
21613,"-0.850341796875","0.2401123046875","-0.475341796875","-1.6479490995407104","-47.241207122802734","-59.570308685302734","-23","43","-27","2"
21644,"-0.687255859375","0.2005615234375","-0.40380859375","-16.4794921875","-51.513668060302734","-75.37841796875","-23","43","-27","2"
21678,"-0.6845703125","0.11474609375","-0.264404296875","-55.419918060302734","-52.978511810302734","-99.48729705810547","-19","39","-31","2"
21709,"-0.6883544921875","0.145751953125","-0.23583984375","-99.91454315185547","-40.10009765625","-95.82518768310547","-19","39","-31","2"
21745,"-0.67236328125","0.2647705078125","-0.2618408203125","-92.59032440185547","-44.372554779052734","-82.21434783935547","-19","39","-31","2"
21776,"-0.7171630859375","0.335205078125","-0.28271484375","-61.340328216552734","-51.452632904052734","-65.12451171875","-17","37","-37","2"
21807,"-0.7940673828125","0.3372802734375","-0.2847900390625","-16.7236328125","-45.349117279052734","-35.82763671875","-17","37","-37","2"
21838,"-0.856689453125","0.2843017578125","-0.3094482421875","17.7001953125","-32.04345703125","-6.225585460662842","-17","37","-37","2"
21869,"-0.899169921875","0.2701416015625","-0.3363037109375","35.46142578125","-15.380858421325684","14.770506858825684","-16","39","-37","2"
21900,"-0.9317626953125","0.24658203125","-0.365966796875","47.058101654052734","1.0986328125","34.3017578125","-16","39","-37","2"
21933,"-0.969970703125","0.1182861328125","-0.4718017578125","19.59228515625","29.785154342651367","51.818843841552734","-16","39","-37","2"
21964,"-1.1607666015625","0.1915283203125","-0.552978515625","-4.08935546875","40.649410247802734","60.546871185302734","-18","40","-32","2"
21995,"-1.1455078125","0.3475341796875","-0.6180419921875","-22.338865280151367","59.448238372802734","78.06396484375","-18","40","-32","2"
22028,"-0.90087890625","0.3154296875","-0.5797119140625","7.995604991912842","87.03612518310547","102.41698455810547","-18","40","-32","2"
22063,"-0.818115234375","0.095703125","-0.5931396484375","55.664058685302734","74.64599609375","88.37889862060547","-26","45","-29","2"
22099,"-1.0347900390625","0.1488037109375","-0.6087646484375","34.11865234375","56.579586029052734","59.814449310302734","-26","45","-29","2"
22134,"-0.970703125","0.2698974609375","-0.578125","49.499507904052734","78.369140625","83.00780487060547","-26","45","-29","2"
22165,"-0.7161865234375","0.2535400390625","-0.671875","68.90869140625","52.429195404052734","59.814449310302734","-29","45","-28","2"
22199,"-0.5701904296875","0.1529541015625","-0.5843505859375","85.20507049560547","31.555173873901367","43.395992279052734","-29","45","-28","2"
22230,"-0.5924072265625","0.05224609375","-0.580078125","77.69775390625","26.184080123901367","39.55078125","-29","45","-28","2"
22264,"-0.61767578125","0.149658203125","-0.5693359375","10.375975608825684","33.38623046875","34.3017578125","-30","43","-24","2"
22295,"-0.6124267578125","0.2579345703125","-0.55517578125","-3.723144292831421","36.31591796875","35.5224609375","-30","43","-24","2"
22330,"-0.646484375","0.252197265625","-0.5677490234375","5.065917491912842","28.869626998901367","38.6962890625","-30","43","-24","2"
22361,"-0.7249755859375","0.2542724609375","-0.609375","3.173827886581421","19.71435546875","27.343748092651367","-29","42","-25","2"
22392,"-0.8240966796875","0.2744140625","-0.6278076171875","5.432128429412842","12.329100608825684","15.502928733825684","-29","42","-25","2"
22423,"-0.9598388671875","0.293212890625","-0.6339111328125","8.6669921875","2.868652105331421","5.981444835662842","-29","42","-25","2"
22457,"-1.0247802734375","0.23486328125","-0.6624755859375","-2.50244140625","-8.72802734375","-9.09423828125","-29","40","-30","2"
22492,"-0.9654541015625","0.2310791015625","-0.6649169921875","-5.126952648162842","-9.765625","-32.40966796875","-29","40","-30","2"
22523,"-1.0152587890625","0.2008056640625","-0.6927490234375","-0.9155272841453552","-19.95849609375","-41.931148529052734","-29","40","-30","2"
22557,"-0.865478515625","0.1595458984375","-0.6494140625","-17.9443359375","-16.78466796875","-49.865718841552734","-25","38","-31","2"
22592,"-0.804931640625","0.0716552734375","-0.5750732421875","-34.11865234375","-36.0107421875","-66.95556640625","-25","38","-31","2"
22625,"-1.113525390625","0.208251953125","-0.6114501953125","-86.42577362060547","-62.377925872802734","-64.94140625","-25","38","-31","2"
22656,"-1.2515869140625","0.4493408203125","-0.6143798828125","-78.125","-51.940914154052734","-37.59765625","-24","38","-32","2"
22692,"-1.1112060546875","0.4447021484375","-0.4669189453125","-29.602048873901367","-42.419429779052734","-19.775390625","-24","38","-32","2"
22723,"-0.8033447265625","0.2364501953125","-0.3572998046875","14.160155296325684","-45.837398529052734","-33.69140625","-24","38","-32","2"
22756,"-0.6697998046875","0.1031494140625","-0.29833984375","-2.685546636581421","-54.992671966552734","-63.781734466552734","-19","33","-33","2"
22788,"-0.6494140625","0.130859375","-0.2777099609375","-42.053218841552734","-64.5751953125","-86.12059783935547","-19","33","-33","2"
22819,"-0.70263671875","0.243896484375","-0.287841796875","-46.142574310302734","-57.617183685302734","-78.9794921875","-19","33","-33","2"
22850,"-0.7083740234375","0.2486572265625","-0.2578125","-30.944822311401367","-55.297847747802734","-65.5517578125","-19","33","-33","2"
22881,"-0.76171875","0.22314453125","-0.2852783203125","-23.498533248901367","-53.222652435302734","-53.283687591552734","-18","30","-35","2"
22912,"-0.8609619140625","0.1990966796875","-0.30615234375","-20.874021530151367","-39.61181640625","-40.954586029052734","-18","30","-35","2"
22943,"-0.9219970703125","0.22705078125","-0.333251953125","-12.329100608825684","-19.8974609375","-28.686521530151367","-18","30","-35","2"
22974,"-0.968994140625","0.2178955078125","-0.4000244140625","3.479003667831421","5.798339366912842","-3.540038824081421","-18","30","-34","2"
23005,"-0.9613037109375","0.1849365234375","-0.4288330078125","2.563476324081421","18.49365234375","9.3994140625","-18","30","-34","2"
23039,"-0.9482421875","0.1185302734375","-0.5244140625","-12.451170921325684","40.161128997802734","28.015134811401367","-18","30","-34","2"
23070,"-1.0960693359375","0.19140625","-0.5977783203125","-27.282712936401367","38.9404296875","37.41455078125","-18","29","-34","2"
23101,"-0.9879150390625","0.36669921875","-0.5604248046875","-22.460935592651367","48.522945404052734","47.668453216552734","-18","29","-34","2"
23133,"-0.7679443359375","0.251220703125","-0.52099609375","46.386714935302734","61.279293060302734","65.00244140625","-18","29","-34","2"
23164,"-0.878662109375","0.0460205078125","-0.604248046875","57.128902435302734","38.02490234375","45.593257904052734","-19","27","-30","2"
23195,"-1.045654296875","0.1962890625","-0.677734375","26.916501998901367","35.46142578125","42.480464935302734","-19","27","-30","2"
23229,"-1.0096435546875","0.3460693359375","-0.62451171875","36.865234375","50.048824310302734","65.85693359375","-19","27","-30","2"
23260,"-0.74072265625","0.292724609375","-0.499755859375","63.354488372802734","45.471187591552734","59.448238372802734","-20","25","-28","2"
23291,"-0.575927734375","0.2000732421875","-0.5186767578125","100.64696502685547","34.423828125","45.471187591552734","-20","25","-28","2"
23322,"-0.5736083984375","0.0419921875","-0.5250244140625","81.84813690185547","25.085447311401367","33.8134765625","-20","25","-28","2"
23353,"-0.604248046875","0.095703125","-0.506591796875","20.080564498901367","35.82763671875","23.315427780151367","-20","25","-28","2"
23384,"-0.593017578125","0.2315673828125","-0.5501708984375","-2.01416015625","39.794921875","21.972654342651367","-19","32","-30","2"
23415,"-0.6192626953125","0.2347412109375","-0.57275390625","-5.615233898162842","40.405269622802734","34.60693359375","-19","32","-30","2"
23446,"-0.6512451171875","0.210693359375","-0.593994140625","-10.070799827575684","38.14697265625","32.3486328125","-19","32","-30","2"
23481,"-0.7708740234375","0.303466796875","-0.649658203125","-5.187987804412842","20.874021530151367","19.47021484375","-19","26","-29","2"
23512,"-0.9913330078125","0.4144287109375","-0.6463623046875","24.536130905151367","8.11767578125","22.583005905151367","-19","26","-29","2"
23543,"-1.02685546875","0.305908203125","-0.642578125","51.086421966552734","-1.7700194120407104","20.629880905151367","-19","26","-29","2"
23574,"-0.940673828125","0.2115478515625","-0.6600341796875","25.451658248901367","-0.1831054538488388","0.6713866591453552","-18","30","-29","2"
23605,"-1.026123046875","0.2808837890625","-0.66845703125","10.864256858825684","-3.845214605331421","-11.413573265075684","-18","30","-29","2"
23670,"-0.7191162109375","0.0660400390625","-0.4971923828125","-47.058101654052734","-1.6479490995407104","-46.813961029052734","-17","29","-27","2"
23726,"-1.22216796875","0.404541015625","-0.5965576171875","-45.776363372802734","-43.273921966552734","-40.527339935302734","-17","29","-27","2"
23758,"-1.1968994140625","0.364990234375","-0.4903564453125","-51.391597747802734","-27.099607467651367","-17.822265625","-14","28","-27","2"
23793,"-0.9371337890625","0.2955322265625","-0.37109375","-18.06640625","-22.277830123901367","-19.10400390625","-14","28","-27","2"
23824,"-0.74365234375","0.154052734375","-0.321533203125","14.160155296325684","-23.620603561401367","-13.183592796325684","-14","28","-27","2"
23859,"-0.6595458984375","-0.072509765625","-0.2841796875","-15.808104515075684","-27.343748092651367","-16.7236328125","-14","28","-27","2"
23894,"-0.67626953125","0.0308837890625","-0.22119140625","-54.199214935302734","-31.005857467651367","-24.841306686401367","-11","27","-25","2"
23926,"-0.70654296875","0.139404296875","-0.217529296875","-35.09521484375","-34.5458984375","-11.779784202575684","-11","27","-25","2"
23957,"-0.8529052734375","0.1163330078125","-0.260009765625","-14.831542015075684","-37.29248046875","0.7324218153953552","-11","27","-25","2"
23989,"-0.9609375","0.1258544921875","-0.2747802734375","-7.446288585662842","-30.029294967651367","5.554198741912842","-12","26","-25","2"
24020,"-1.0455322265625","0.152587890625","-0.302734375","-5.798339366912842","-17.578125","3.356933355331421","-12","26","-25","2"
24053,"-1.105712890625","0.18505859375","-0.3282470703125","0.0610351525247097","-9.33837890625","2.624511480331421","-12","26","-25","2"
24088,"-1.090576171875","0.1925048828125","-0.3616943359375","7.751464366912842","5.065917491912842","14.099120140075684","-11","27","-28","2"
24119,"-1.0684814453125","0.12548828125","-0.4127197265625","6.530761241912842","16.6015625","22.949216842651367","-11","27","-28","2"
24150,"-1.2244873046875","0.1685791015625","-0.4351806640625","2.868652105331421","18.9208984375","29.846189498901367","-11","27","-28","2"
24181,"-1.07373046875","0.244140625","-0.3829345703125","26.794431686401367","40.649410247802734","53.466793060302734","-12","28","-24","2"
24212,"-0.715087890625","0.057861328125","-0.2960205078125","68.84765625","49.255367279052734","66.7724609375","-12","28","-24","2"
24243,"-0.928466796875","-0.232666015625","-0.3853759765625","45.104976654052734","21.728513717651367","26.062009811401367","-12","28","-24","2"
24276,"-1.180908203125","0.141357421875","-0.4718017578125","3.295898199081421","26.367185592651367","16.6015625","-12","30","-27","2"
24307,"-1.04150390625","0.2783203125","-0.4769287109375","33.26416015625","48.278804779052734","44.189449310302734","-12","30","-27","2"
24338,"-0.7479248046875","-0.0247802734375","-0.501220703125","56.762691497802734","42.175289154052734","34.7900390625","-12","30","-27","2"
24369,"-0.62060546875","-0.0155029296875","-0.5015869140625","32.71484375","38.02490234375","15.991209983825684","-13","25","-22","2"
24400,"-0.620361328125","0.1220703125","-0.510009765625","17.4560546875","23.864744186401367","12.023924827575684","-13","25","-22","2"
24436,"-0.6292724609375","0.177978515625","-0.5301513671875","40.893550872802734","27.465818405151367","32.8369140625","-13","25","-22","2"
24467,"-0.63134765625","0.07373046875","-0.529541015625","25.085447311401367","18.310546875","26.916501998901367","-12","28","-23","2"
24498,"-0.696044921875","0.130615234375","-0.552001953125","7.202147960662842","10.131834983825684","13.977049827575684","-12","28","-23","2"
24531,"-0.778076171875","0.1961669921875","-0.57470703125","3.967284917831421","10.437010765075684","11.901854515075684","-12","28","-23","2"
24562,"-0.8499755859375","0.2298583984375","-0.56396484375","15.502928733825684","5.859374523162842","13.000487327575684","-14","29","-19","2"
24597,"-1.00537109375","0.196533203125","-0.5782470703125","13.549803733825684","-4.150390625","13.610838890075684","-14","29","-19","2"
24629,"-1.0723876953125","0.20263671875","-0.568115234375","-2.990722417831421","-4.5166015625","2.13623046875","-14","29","-19","2"
24660,"-1.104736328125","0.22705078125","-0.5655517578125","1.2817381620407104","-0.9765624403953552","-7.202147960662842","-12","31","-17","2"
24695,"-1.1702880859375","0.2291259765625","-0.5892333984375","9.521484375","-6.896972179412842","-11.413573265075684","-12","31","-17","2"
24726,"-0.900634765625","0.0635986328125","-0.5137939453125","0.2441406100988388","9.33837890625","-14.770506858825684","-12","31","-17","2"
24762,"-0.79150390625","-0.0618896484375","-0.429443359375","-33.203125","-23.437498092651367","-54.504390716552734","-9","35","-18","2"
24793,"-1.184814453125","0.2303466796875","-0.5235595703125","-62.316890716552734","-38.75732421875","-62.499996185302734","-9","35","-18","2"
24825,"-1.30810546875","0.3919677734375","-0.478759765625","-55.664058685302734","-24.230955123901367","-28.869626998901367","-9","35","-18","2"
24860,"-1.068115234375","0.2530517578125","-0.390380859375","-38.75732421875","-19.71435546875","-35.400390625","-8","32","-21","2"
24891,"-0.827880859375","0.1802978515625","-0.3558349609375","-32.89794921875","-20.874021530151367","-45.959468841552734","-8","32","-21","2"
24922,"-0.647705078125","0.1494140625","-0.29443359375","-53.283687591552734","-23.620603561401367","-57.312007904052734","-8","32","-21","2"
24953,"-0.6212158203125","0.20556640625","-0.271484375","-67.3828125","-33.02001953125","-70.37353515625","-8","32","-21","2"
24984,"-0.6552734375","0.27490234375","-0.270751953125","-47.485347747802734","-39.9169921875","-65.24658203125","-5","29","-23","2"
25017,"-0.6998291015625","0.265380859375","-0.2857666015625","-26.306150436401367","-44.189449310302734","-55.847164154052734","-5","29","-23","2"
25052,"-0.782958984375","0.2369384765625","-0.313232421875","-18.9208984375","-46.997066497802734","-47.607418060302734","-5","29","-23","2"
25083,"-0.84765625","0.24365234375","-0.3251953125","-13.244627952575684","-43.518062591552734","-41.809078216552734","-1","30","-28","2"
25116,"-0.9417724609375","0.2569580078125","-0.3814697265625","-1.5258787870407104","-37.2314453125","-30.151365280151367","-1","30","-28","2"
25147,"-1.0152587890625","0.25146484375","-0.40576171875","7.934569835662842","-22.521970748901367","-13.122557640075684","-1","30","-28","2"
25179,"-1.0045166015625","0.224853515625","-0.427978515625","10.192870140075684","-13.122557640075684","-3.112792730331421","-2","31","-22","2"
25213,"-1.0206298828125","0.1611328125","-0.456787109375","3.173827886581421","5.065917491912842","10.803221702575684","-2","31","-22","2"
25248,"-1.392578125","0.3509521484375","-0.4139404296875","-10.864256858825684","10.070799827575684","7.507323741912842","-2","31","-22","2"
25280,"-1.0147705078125","0.266845703125","-0.3275146484375","35.09521484375","37.2314453125","16.41845703125","-2","34","-28","2"
25311,"-0.8004150390625","-0.0830078125","-0.3349609375","53.222652435302734","21.850584030151367","0.1220703050494194","-2","34","-28","2"
25342,"-1.001220703125","-0.0374755859375","-0.5108642578125","8.544921875","-6.103515148162842","-15.563963890075684","-2","34","-28","2"
25373,"-1.07470703125","0.375","-0.5465087890625","8.1787109375","15.441893577575684","33.38623046875","-4","30","-31","2"
25404,"-0.8204345703125","0.365234375","-0.5045166015625","70.25146484375","32.53173828125","85.32714080810547","-4","30","-31","2"
25435,"-0.59130859375","0.0750732421875","-0.550048828125","117.12645721435547","28.625486373901367","87.58544158935547","-4","30","-31","2"
25466,"-0.5450439453125","0.046142578125","-0.4962158203125","93.32274627685547","22.583005905151367","61.828609466552734","-5","33","-25","2"
25564,"-0.590087890625","0.1536865234375","-0.4739990234375","7.812499523162842","40.832515716552734","52.978511810302734","-9","30","-24","2"
25595,"-0.673583984375","0.314697265625","-0.5103759765625","-0.6103515625","28.076169967651367","41.625972747802734","-9","30","-24","2"
25626,"-0.8035888671875","0.3380126953125","-0.5625","7.080077648162842","36.1328125","49.438472747802734","-9","30","-24","2"
25658,"-0.8330078125","0.29052734375","-0.5897216796875","-8.4228515625","31.494138717651367","38.818359375","-9","30","-24","2"
25689,"-0.9049072265625","0.3353271484375","-0.599853515625","-9.1552734375","28.076169967651367","30.822751998901367","-9","38","-20","2"
25720,"-0.96435546875","0.2791748046875","-0.6058349609375","-18.06640625","17.88330078125","11.596678733825684","-9","38","-20","2"
25753,"-1.020263671875","0.358642578125","-0.6094970703125","-24.841306686401367","17.02880859375","-7.263183116912842","-9","38","-20","2"
25784,"-1.09033203125","0.307373046875","-0.7103271484375","-22.094724655151367","11.657713890075684","-17.39501953125","-12","37","-20","2"
25819,"-0.845703125","0.1964111328125","-0.620849609375","-52.062984466552734","14.160155296325684","-31.921384811401367","-12","37","-20","2"
25850,"-0.7669677734375","0.0860595703125","-0.5313720703125","-70.4345703125","-2.13623046875","-61.462398529052734","-12","37","-20","2"
25881,"-1.0074462890625","0.2117919921875","-0.62353515625","-95.94725799560547","-44.250484466552734","-91.24755096435547","-11","38","-18","2"
25914,"-1.189697265625","0.5350341796875","-0.6219482421875","-54.687496185302734","-59.509273529052734","-61.157222747802734","-11","38","-18","2"
25945,"-1.1812744140625","0.30126953125","-0.57177734375","-52.429195404052734","-45.104976654052734","-51.208492279052734","-11","38","-18","2"
25976,"-0.825927734375","0.370849609375","-0.3837890625","-35.400390625","-46.691890716552734","-52.368160247802734","-6","36","-25","2"
26007,"-0.7369384765625","0.2415771484375","-0.3458251953125","-15.747069358825684","-60.424800872802734","-54.626461029052734","-6","36","-25","2"
26038,"-0.6951904296875","0.1993408203125","-0.3114013671875","-35.58349609375","-79.2236328125","-87.70751190185547","-6","36","-25","2"
26073,"-0.7298583984375","0.2857666015625","-0.3021240234375","-30.761716842651367","-87.03612518310547","-91.73583221435547","-9","35","-31","2"
26104,"-0.8006591796875","0.3172607421875","-0.299072265625","-12.084959983825684","-88.01268768310547","-78.91845703125","-9","35","-31","2"
26135,"-0.833740234375","0.302490234375","-0.3026123046875","-2.685546636581421","-80.13916015625","-62.011714935302734","-9","35","-31","2"
26166,"-0.8736572265625","0.28125","-0.30908203125","12.023924827575684","-71.83837890625","-40.832515716552734","-3","29","-35","2"
26197,"-0.9320068359375","0.27978515625","-0.3173828125","18.5546875","-52.917476654052734","-26.733396530151367","-3","29","-35","2"
26228,"-0.9490966796875","0.2877197265625","-0.3299560546875","23.986814498901367","-37.7197265625","-15.686034202575684","-3","29","-35","2"
26259,"-0.9439697265625","0.2535400390625","-0.3531494140625","33.935546875","-12.512206077575684","0.6103515625","-1","32","-36","2"
26291,"-0.887939453125","0.144775390625","-0.4227294921875","25.085447311401367","11.901854515075684","12.084959983825684","-1","32","-36","2"
26327,"-1.0145263671875","0.158203125","-0.5054931640625","-20.385740280151367","34.85107421875","25.329587936401367","-1","32","-36","2"
26360,"-1.0582275390625","0.2935791015625","-0.542236328125","-46.997066497802734","47.973628997802734","46.447750091552734","-8","34","-30","2"
26392,"-0.828369140625","0.3773193359375","-0.44775390625","-18.37158203125","62.561031341552734","67.0166015625","-8","34","-30","2"
26428,"-0.8756103515625","0.2174072265625","-0.5716552734375","41.809078216552734","62.072750091552734","80.56639862060547","-8","34","-30","2"
26459,"-0.94970703125","0.1346435546875","-0.6102294921875","18.5546875","38.818359375","49.804683685302734","-8","34","-30","2"
26491,"-1.0374755859375","0.354248046875","-0.6190185546875","14.099120140075684","63.171382904052734","85.81542205810547","-11","33","-31","2"
26522,"-0.7589111328125","0.3092041015625","-0.493408203125","37.353515625","62.499996185302734","78.55224609375","-11","33","-31","2"
26554,"-0.6153564453125","0.22119140625","-0.525634765625","64.02587890625","46.081539154052734","63.964839935302734","-11","33","-31","2"
26585,"-0.606689453125","0.17041015625","-0.560546875","65.7958984375","38.63525390625","56.579586029052734","-12","37","-29","2"
26616,"-0.64306640625","0.17333984375","-0.594970703125","43.518062591552734","39.73388671875","53.161617279052734","-12","37","-29","2"
26648,"-0.6429443359375","0.198974609375","-0.615234375","12.451170921325684","43.945308685302734","55.175777435302734","-12","37","-29","2"
26683,"-0.607177734375","0.231689453125","-0.6094970703125","-23.376462936401367","47.424312591552734","53.710933685302734","-15","41","-29","2"
26747,"-0.73974609375","0.2987060546875","-0.6214599609375","-14.770506858825684","27.954099655151367","35.888671875","-15","41","-29","2"
26778,"-0.8389892578125","0.3060302734375","-0.622802734375","-13.610838890075684","23.315427780151367","31.372068405151367","-21","43","-18","2"
26809,"-0.9146728515625","0.3121337890625","-0.6103515625","-19.4091796875","12.634276390075684","18.49365234375","-21","43","-18","2"
26842,"-0.9677734375","0.3470458984375","-0.6180419921875","-21.606443405151367","-1.220703125","-9.033203125","-21","43","-18","2"
26876,"-1.0853271484375","0.36669921875","-0.6611328125","-0.0610351525247097","-10.375975608825684","-23.559568405151367","-17","40","-23","2"
26907,"-1.08642578125","0.3262939453125","-0.681640625","7.324218273162842","-14.648436546325684","-33.02001953125","-17","40","-23","2"
26938,"-0.8311767578125","0.147705078125","-0.5928955078125","-8.48388671875","-5.187987804412842","-46.936031341552734","-17","40","-23","2"
26969,"-0.81884765625","0.0994873046875","-0.5185546875","-37.353515625","-37.65869140625","-86.91405487060547","-16","40","-22","2"
27000,"-1.19287109375","0.37646484375","-0.609130859375","-67.87109375","-64.14794921875","-99.06005096435547","-16","40","-22","2"
27031,"-1.206298828125","0.44091796875","-0.552490234375","-50.231929779052734","-50.354000091552734","-67.5048828125","-16","40","-22","2"
27063,"-0.99072265625","0.2916259765625","-0.4444580078125","-25.085447311401367","-47.607418060302734","-62.316890716552734","-16","40","-22","2"
27098,"-0.8253173828125","0.22119140625","-0.3917236328125","-11.901854515075684","-52.734371185302734","-73.91357421875","-7","34","-29","2"
27129,"-0.6900634765625","0.1629638671875","-0.3695068359375","-27.526853561401367","-58.837886810302734","-85.26610565185547","-7","34","-29","2"
27160,"-0.6029052734375","0.2154541015625","-0.400146484375","-35.15625","-84.77782440185547","-94.36034393310547","-7","34","-29","2"
27194,"-0.7052001953125","0.3719482421875","-0.3216552734375","8.85009765625","-86.97509002685547","-67.5048828125","-4","33","-36","2"
27229,"-0.72705078125","0.220947265625","-0.3638916015625","36.92626953125","-77.08740234375","-40.344234466552734","-4","33","-36","2"
27260,"-0.7689208984375","0.1636962890625","-0.34375","19.04296875","-64.75830078125","-34.66796875","-4","33","-36","2"
27291,"-0.800537109375","0.246826171875","-0.3389892578125","5.126952648162842","-50.048824310302734","-25.878904342651367","-3","29","-43","2"
27322,"-0.9056396484375","0.2686767578125","-0.373779296875","16.7236328125","-21.118162155151367","1.8920897245407104","-3","29","-43","2"
27354,"-0.93896484375","0.254638671875","-0.3856201171875","12.573241233825684","-3.906249761581421","12.451170921325684","-3","29","-43","2"
27385,"-0.9139404296875","0.2071533203125","-0.44580078125","1.5258787870407104","19.4091796875","26.733396530151367","-4","33","-40","2"
27416,"-1.0548095703125","0.206787109375","-0.5357666015625","-25.024412155151367","39.61181640625","40.893550872802734","-4","33","-40","2"
27450,"-1.1427001953125","0.306396484375","-0.643310546875","-54.138179779052734","49.499507904052734","67.9931640625","-4","33","-40","2"
27481,"-0.759765625","0.270751953125","-0.6845703125","-48.339839935302734","68.2373046875","95.70311737060547","-8","29","-37","2"
27517,"-0.762451171875","0.3035888671875","-0.5557861328125","33.87451171875","39.4287109375","91.55272674560547","-8","29","-37","2"
27550,"-0.9998779296875","0.2626953125","-0.65234375","68.115234375","18.6767578125","82.21434783935547","-8","29","-37","2"
27581,"-1.05908203125","0.333251953125","-0.6661376953125","87.58544158935547","22.338865280151367","95.88622283935547","-11","34","-40","2"
27612,"-0.868896484375","0.2733154296875","-0.5810546875","100.46385955810547","37.353515625","86.05956268310547","-11","34","-40","2"
27643,"-0.63232421875","0.08935546875","-0.5654296875","89.84374237060547","30.578611373901367","59.265132904052734","-11","34","-40","2"
27677,"-0.5067138671875","0.031494140625","-0.511962890625","44.921871185302734","14.465331077575684","26.062009811401367","-9","30","-41","2"
27708,"-0.5543212890625","0.1866455078125","-0.49365234375","5.554198741912842","8.9111328125","9.70458984375","-9","30","-41","2"
27742,"-0.559326171875","0.31005859375","-0.5135498046875","16.78466796875","19.47021484375","25.085447311401367","-9","30","-41","2"
27777,"-0.5660400390625","0.2164306640625","-0.5390625","16.2353515625","18.12744140625","34.85107421875","-8","30","-37","2"
27808,"-0.65869140625","0.2357177734375","-0.5531005859375","6.958007335662842","18.49365234375","30.395505905151367","-8","30","-37","2"
27843,"-0.771484375","0.2928466796875","-0.60693359375","-0.4272460639476776","27.465818405151367","31.494138717651367","-8","30","-37","2"
27876,"-0.815185546875","0.281982421875","-0.6240234375","-2.990722417831421","28.625486373901367","32.8369140625","-9","31","-38","2"
27911,"-0.92529296875","0.2646484375","-0.6490478515625","-15.014647483825684","20.324705123901367","19.775390625","-9","31","-38","2"
27942,"-1.0113525390625","0.3192138671875","-0.6588134765625","-22.583005905151367","19.287109375","6.164550304412842","-9","31","-38","2"
27976,"-1.1817626953125","0.368896484375","-0.746826171875","-2.868652105331421","14.831542015075684","-3.540038824081421","-8","29","-34","2"
28007,"-0.9833984375","0.306640625","-0.72509765625","-0.8544921278953552","24.169919967651367","-4.08935546875","-8","29","-34","2"
28043,"-0.7244873046875","0.1026611328125","-0.594482421875","-14.709471702575684","20.874021530151367","-28.564451217651367","-8","29","-34","2"
28074,"-0.9000244140625","0.1053466796875","-0.598876953125","-79.1015625","-14.953612327575684","-79.28466796875","-12","32","-37","2"
28109,"-1.093505859375","0.3052978515625","-0.686767578125","-119.01854705810547","-18.798828125","-78.369140625","-12","32","-37","2"
28140,"-1.070556640625","0.4437255859375","-0.5687255859375","-105.34667205810547","-14.282225608825684","-58.776851654052734","-12","32","-37","2"
28176,"-0.829833984375","0.3311767578125","-0.462158203125","-27.465818405151367","-36.7431640625","-47.546382904052734","-10","25","-35","2"
28207,"-0.6971435546875","0.1932373046875","-0.403564453125","-13.183592796325684","-42.358394622802734","-50.292964935302734","-10","25","-35","2"
28238,"-0.630859375","0.1549072265625","-0.361328125","-29.602048873901367","-65.0634765625","-79.89501953125","-10","25","-35","2"
28270,"-0.68994140625","0.238037109375","-0.3668212890625","-30.639646530151367","-71.8994140625","-81.78710174560547","-10","21","-33","2"
28306,"-0.71923828125","0.2724609375","-0.354248046875","-20.507810592651367","-69.82421875","-65.85693359375","-10","21","-33","2"
28337,"-0.7470703125","0.25146484375","-0.364990234375","-12.023924827575684","-65.4296875","-46.264644622802734","-10","21","-33","2"
28372,"-0.788818359375","0.253173828125","-0.3785400390625","-5.859374523162842","-48.339839935302734","-23.376462936401367","-13","20","-39","2"
28408,"-0.8426513671875","0.2607421875","-0.3770751953125","5.859374523162842","-31.799314498901367","-3.967284917831421","-13","20","-39","2"
28439,"-0.9066162109375","0.2496337890625","-0.4085693359375","13.610838890075684","-13.977049827575684","10.253905296325684","-13","20","-39","2"
28470,"-0.953125","0.2222900390625","-0.4307861328125","15.380858421325684","4.638671875","23.376462936401367","-11","21","-36","2"
28501,"-0.9520263671875","0.1688232421875","-0.4735107421875","0.6103515625","23.986814498901367","30.700681686401367","-11","21","-36","2"
28532,"-1.0963134765625","0.2286376953125","-0.5357666015625","-14.404295921325684","26.123044967651367","39.12353515625","-11","21","-36","2"
28563,"-1.078369140625","0.376708984375","-0.5322265625","-16.17431640625","33.02001953125","50.964351654052734","-11","21","-36","2"
28596,"-0.8038330078125","0.274658203125","-0.4344482421875","40.466304779052734","55.664058685302734","75.5615234375","-13","19","-36","2"
28631,"-0.859130859375","0.0390625","-0.4981689453125","56.457515716552734","36.865234375","53.771968841552734","-13","19","-36","2"
28662,"-1.0306396484375","0.228759765625","-0.5791015625","22.094724655151367","28.686521530151367","37.17041015625","-13","19","-36","2"
28696,"-0.99267578125","0.3355712890625","-0.531494140625","34.7900390625","50.537105560302734","65.61279296875","-14","17","-37","2"
28728,"-0.766845703125","0.1959228515625","-0.4561767578125","49.682613372802734","50.415035247802734","61.950679779052734","-14","17","-37","2"
28764,"-0.5509033203125","0.0950927734375","-0.5711669921875","50.720211029052734","33.69140625","41.381832122802734","-14","17","-37","2"
28795,"-0.50341796875","0.1494140625","-0.58056640625","43.395992279052734","19.8974609375","41.381832122802734","-14","20","-31","2"
28826,"-0.60400390625","0.3243408203125","-0.5252685546875","44.921871185302734","12.023924827575684","51.391597747802734","-14","20","-31","2"
28857,"-0.6527099609375","0.2547607421875","-0.609619140625","76.416015625","16.05224609375","70.1904296875","-14","20","-31","2"
28888,"-0.670654296875","0.15283203125","-0.6171875","66.58935546875","15.197752952575684","66.89453125","-15","21","-31","2"
28919,"-0.7197265625","0.18310546875","-0.6112060546875","17.88330078125","18.4326171875","47.546382904052734","-15","21","-31","2"
28951,"-0.744873046875","0.21923828125","-0.5963134765625","-9.1552734375","22.033689498901367","33.02001953125","-15","21","-31","2"
28987,"-0.81396484375","0.3106689453125","-0.5751953125","-18.9208984375","13.977049827575684","20.751951217651367","-20","21","-28","2"
29018,"-0.9302978515625","0.343505859375","-0.5784912109375","-22.583005905151367","5.0048828125","11.230467796325684","-20","21","-28","2"
29049,"-1.015380859375","0.3798828125","-0.5845947265625","-19.8974609375","3.906249761581421","2.868652105331421","-20","21","-28","2"
29080,"-1.212646484375","0.4290771484375","-0.599365234375","7.568358898162842","0.2441406100988388","-14.831542015075684","-18","17","-31","2"
29111,"-1.24951171875","0.41748046875","-0.6474609375","28.686521530151367","-2.563476324081421","-21.545408248901367","-18","17","-31","2"
29142,"-0.9573974609375","0.0601806640625","-0.6107177734375","16.9677734375","20.01953125","-37.78076171875","-18","17","-31","2"
29173,"-0.849853515625","-0.021240234375","-0.5146484375","-31.860349655151367","8.1787109375","-75.13427734375","-18","17","-31","2"
29204,"-1.0050048828125","0.2171630859375","-0.5772705078125","-115.60057830810547","-28.991697311401367","-114.74608612060547","-19","20","-28","2"
29238,"-1.0472412109375","0.4334716796875","-0.534912109375","-111.26708221435547","-29.479978561401367","-91.67479705810547","-19","20","-28","2"
29272,"-0.905517578125","0.4156494140625","-0.3963623046875","-30.212400436401367","-36.4990234375","-64.0869140625","-16","18","-29","2"
29307,"-0.748046875","0.26171875","-0.34228515625","9.70458984375","-39.794921875","-52.978511810302734","-16","18","-29","2"
29342,"-0.644287109375","0.135009765625","-0.3167724609375","-4.33349609375","-51.391597747802734","-71.71630859375","-16","18","-29","2"
29373,"-0.669189453125","0.211181640625","-0.312255859375","-32.1044921875","-53.955074310302734","-79.04052734375","-17","17","-27","2"
29407,"-0.6898193359375","0.24755859375","-0.302734375","-26.245115280151367","-52.062984466552734","-64.94140625","-17","17","-27","2"
29442,"-0.7752685546875","0.2545166015625","-0.3175048828125","-24.169919967651367","-49.621578216552734","-49.682613372802734","-17","17","-27","2"
29473,"-0.8282470703125","0.2916259765625","-0.34375","-16.78466796875","-48.034664154052734","-38.330078125","-14","22","-35","2"
29504,"-0.9114990234375","0.2998046875","-0.3798828125","14.465331077575684","-37.29248046875","-6.042479991912842","-14","22","-35","2"
29535,"-0.96435546875","0.270751953125","-0.3629150390625","31.311033248901367","-28.381345748901367","4.94384765625","-14","22","-35","2"
29567,"-0.9512939453125","0.1943359375","-0.418701171875","36.1328125","-9.521484375","22.888181686401367","-13","14","-38","2"
29599,"-0.8924560546875","0.145263671875","-0.4598388671875","6.591796398162842","12.207030296325684","30.395505905151367","-13","14","-38","2"
29630,"-0.9993896484375","0.2144775390625","-0.50537109375","-13.000487327575684","18.73779296875","39.61181640625","-13","14","-38","2"
29664,"-1.0653076171875","0.312744140625","-0.5445556640625","-23.742673873901367","26.489255905151367","56.152339935302734","-13","14","-38","2"
29699,"-0.84912109375","0.3406982421875","-0.4678955078125","16.05224609375","47.668453216552734","72.998046875","-15","20","-31","2"
29730,"-0.8443603515625","0.1600341796875","-0.5130615234375","40.527339935302734","41.320796966552734","64.75830078125","-15","20","-31","2"
