"Time (ms)","Accelerometer X (mGal)","Accelerometer Y (mGal)","Accelerometer Z (mGal)","Gyro X","Gyro Y","Gyro Z","Magnetic X","Magnetic Y","Magnetic Z","Locomotion"
1899,"-0.3111572265625","0.897216796875","-0.0406494140625","-0.9765624403953552","0.1220703050494194","-0.30517578125","104","-50","85","4"
1930,"-0.31884765625","0.9276123046875","-0.029296875","0.4882812201976776","0.1220703050494194","-0.30517578125","104","-50","85","4"
1961,"-0.3170166015625","0.9061279296875","-0.0340576171875","-0.3662109076976776","0.4882812201976776","0.30517578125","104","-50","85","4"
1996,"-0.31884765625","0.9210205078125","-0.0372314453125","0","0.7934569716453552","-0.0610351525247097","102","-52","91","4"
2029,"-0.322998046875","0.902099609375","-0.025634765625","0.3662109076976776","0.54931640625","-0.1220703050494194","102","-52","91","4"
2060,"-0.320556640625","0.916259765625","-0.031982421875","-0.4272460639476776","0.3662109076976776","0","102","-52","91","4"
2091,"-0.3184814453125","0.9117431640625","-0.033447265625","0.3662109076976776","0.1831054538488388","-0.1831054538488388","102","-52","91","4"
2125,"-0.31982421875","0.9180908203125","-0.0311279296875","0.0610351525247097","0.1220703050494194","-0.6103515625","109","-40","89","4"
2160,"-0.31787109375","0.90087890625","-0.029296875","0.6103515625","0.4272460639476776","-0.1220703050494194","109","-40","89","4"
2192,"-0.3150634765625","0.9166259765625","-0.0283203125","-0.54931640625","0.54931640625","-0.54931640625","105","-49","86","4"
2285,"-0.31396484375","0.9022216796875","-0.0343017578125","-0.4882812201976776","0.1831054538488388","-0.0610351525247097","105","-49","86","4"
2318,"-0.318359375","0.9080810546875","-0.0321044921875","0.8544921278953552","0.30517578125","0.3662109076976776","103","-49","83","4"
2353,"-0.3212890625","0.9244384765625","-0.03466796875","-0.9155272841453552","0.6103515625","-0.30517578125","103","-49","83","4"
2389,"-0.3199462890625","0.901611328125","-0.0341796875","0.0610351525247097","0.30517578125","0.1831054538488388","104","-51","88","4"
2425,"-0.3214111328125","0.916259765625","-0.0279541015625","0.7324218153953552","-0.2441406100988388","0.8544921278953552","104","-51","88","4"
2456,"-0.314697265625","0.9041748046875","-0.02978515625","0.54931640625","-0.1220703050494194","0.4882812201976776","104","-51","88","4"
2489,"-0.3209228515625","0.922607421875","-0.0223388671875","-1.2817381620407104","0.6103515625","-0.1220703050494194","102","-49","86","4"
2521,"-0.3157958984375","0.90283203125","-0.03369140625","0.6713866591453552","0.3662109076976776","0.2441406100988388","102","-49","86","4"
2552,"-0.3194580078125","0.9141845703125","-0.0263671875","-0.8544921278953552","0.1831054538488388","0.0610351525247097","102","-49","86","4"
2619,"-0.320556640625","0.92529296875","-0.0377197265625","-1.3427733182907104","-0.1220703050494194","-0.30517578125","106","-50","82","4"
2650,"-0.3197021484375","0.9034423828125","-0.034912109375","0","-0.6103515625","0.2441406100988388","106","-50","82","4"
2744,"-0.317138671875","0.8941650390625","-0.035400390625","0.9765624403953552","-1.220703125","-0.7324218153953552","106","-50","84","4"
2779,"-0.3194580078125","0.935302734375","-0.02392578125","-1.8310545682907104","-0.4882812201976776","-1.0986328125","106","-50","84","4"
2810,"-0.322509765625","0.91748046875","-0.0208740234375","1.9531248807907104","-0.3662109076976776","-1.7700194120407104","105","-50","86","4"
2844,"-0.3212890625","0.8905029296875","-0.0286865234375","0.1220703050494194","-0.1220703050494194","-1.220703125","105","-50","86","4"
2875,"-0.319091796875","0.8968505859375","-0.003173828125","-3.601073980331421","1.6479490995407104","-0.7324218153953552","105","-50","86","4"
2906,"-0.3114013671875","0.9403076171875","-0.05517578125","-6.469726085662842","1.3427733182907104","-1.3427733182907104","106","-46","83","4"
2941,"-0.310791015625","0.9140625","-0.045654296875","1.03759765625","-0.1831054538488388","-0.6103515625","106","-46","83","4"
2974,"-0.3148193359375","0.927490234375","-0.0369873046875","-0.6103515625","0.2441406100988388","-0.6713866591453552","106","-46","83","4"
3005,"-0.3184814453125","0.906005859375","-0.0335693359375","-1.03759765625","0.4272460639476776","-1.03759765625","105","-53","85","4"
3036,"-0.31005859375","0.9073486328125","-0.044189453125","-1.0986328125","-0.1831054538488388","-0.9765624403953552","105","-53","85","4"
3067,"-0.31103515625","0.9302978515625","-0.044677734375","1.7089842557907104","-0.6713866591453552","-2.0751953125","105","-53","85","4"
3098,"-0.30615234375","0.9166259765625","-0.0413818359375","2.3193359375","-0.7934569716453552","-1.5258787870407104","103","-49","90","4"
3130,"-0.31298828125","0.880859375","-0.017333984375","-0.54931640625","0.7324218153953552","-0.7934569716453552","103","-49","90","4"
3163,"-0.3096923828125","0.939453125","-0.0472412109375","-4.33349609375","0.3662109076976776","-0.2441406100988388","103","-49","90","4"
3199,"-0.305419921875","0.9283447265625","-0.048828125","2.685546636581421","-1.5869139432907104","0.2441406100988388","106","-46","82","4"
3230,"-0.31396484375","0.9149169921875","-0.026123046875","2.13623046875","-0.4272460639476776","-1.03759765625","106","-46","82","4"
3261,"-0.3148193359375","0.9072265625","-0.0347900390625","-0.1220703050494194","0.1220703050494194","-0.7934569716453552","106","-46","82","4"
3293,"-0.313720703125","0.888427734375","-0.0264892578125","-0.8544921278953552","-0.3662109076976776","-0.30517578125","107","-52","90","4"
3328,"-0.3145751953125","0.9439697265625","-0.0361328125","-1.7089842557907104","0","-0.1831054538488388","107","-52","90","4"
3363,"-0.3089599609375","0.91357421875","-0.0384521484375","-2.13623046875","0","-0.7934569716453552","107","-52","90","4"
3394,"-0.3101806640625","0.9232177734375","-0.04833984375","0.9765624403953552","-0.8544921278953552","-0.30517578125","108","-51","83","4"
3425,"-0.3094482421875","0.9107666015625","-0.0352783203125","-0.54931640625","-1.220703125","-0.54931640625","108","-51","83","4"
3456,"-0.3099365234375","0.914306640625","-0.0347900390625","1.4038084745407104","-1.0986328125","-0.3662109076976776","108","-51","83","4"
3487,"-0.3067626953125","0.917724609375","-0.0501708984375","-0.2441406100988388","-2.197265625","-1.8920897245407104","108","-51","83","4"
3522,"-0.30712890625","0.9365234375","-0.043701171875","5.920409679412842","-2.3193359375","-2.3193359375","107","-50","90","4"
3554,"-0.3125","0.8717041015625","-0.021728515625","-0.9765624403953552","-2.38037109375","-2.3193359375","107","-50","90","4"
3585,"-0.30810546875","0.912353515625","-0.0311279296875","3.845214605331421","-2.685546636581421","-1.3427733182907104","107","-50","90","4"
3616,"-0.2974853515625","0.9207763671875","-0.03857421875","-0.9765624403953552","-2.807616949081421","-0.9765624403953552","106","-45","88","4"
3647,"-0.30224609375","0.929443359375","-0.033935546875","1.2817381620407104","-2.746581792831421","-0.54931640625","106","-45","88","4"
3678,"-0.3056640625","0.89892578125","-0.037841796875","0.4882812201976776","-3.173827886581421","-0.3662109076976776","106","-45","88","4"
3709,"-0.30419921875","0.9169921875","-0.046875","-1.03759765625","-3.784179449081421","0.2441406100988388","106","-44","92","4"
3740,"-0.302001953125","0.9171142578125","-0.04052734375","0.2441406100988388","-4.33349609375","1.03759765625","106","-44","92","4"
3771,"-0.3067626953125","0.93896484375","-0.02978515625","0.54931640625","-4.08935546875","0.7934569716453552","106","-44","92","4"
3802,"-0.3046875","0.8916015625","-0.0272216796875","2.13623046875","-3.662109136581421","1.6479490995407104","107","-48","91","4"
3833,"-0.303955078125","0.9173583984375","-0.02587890625","0","-3.479003667831421","2.13623046875","107","-48","91","4"
3864,"-0.3009033203125","0.93115234375","-0.03466796875","1.3427733182907104","-2.3193359375","2.0751953125","107","-48","91","4"
3895,"-0.30810546875","0.898193359375","-0.02978515625","1.5258787870407104","-1.15966796875","2.0751953125","103","-49","89","4"
3926,"-0.3009033203125","0.906982421875","-0.0306396484375","-0.6713866591453552","-1.220703125","1.5258787870407104","103","-49","89","4"
3957,"-0.3040771484375","0.928466796875","-0.031982421875","2.563476324081421","-1.5869139432907104","1.7700194120407104","103","-49","89","4"
3988,"-0.3087158203125","0.9134521484375","-0.0252685546875","0.4882812201976776","-1.220703125","1.220703125","103","-49","89","4"
4053,"-0.30908203125","0.917236328125","-0.0283203125","0","0.6713866591453552","0.3662109076976776","107","-49","87","4"
4084,"-0.3118896484375","0.9056396484375","-0.0159912109375","0.4272460639476776","1.5258787870407104","0.4272460639476776","107","-49","87","4"
4117,"-0.306640625","0.9283447265625","-0.0234375","-1.5869139432907104","2.25830078125","0.3662109076976776","106","-46","89","4"
4149,"-0.322509765625","0.909423828125","-0.0185546875","-3.417968511581421","3.356933355331421","0.6103515625","106","-46","89","4"
4180,"-0.3372802734375","0.9429931640625","-0.0308837890625","-5.859374523162842","3.967284917831421","-0.30517578125","106","-46","89","4"
4251,"-0.3084716796875","0.9027099609375","-0.010498046875","-1.8920897245407104","2.807616949081421","-1.7089842557907104","107","-43","89","4"
4313,"-0.3001708984375","0.919189453125","-0.045166015625","-3.295898199081421","4.39453125","-1.03759765625","104","-49","89","4"
4377,"-0.305419921875","0.924560546875","-0.016845703125","-2.990722417831421","6.896972179412842","0.30517578125","104","-49","89","4"
4413,"-0.2999267578125","0.86572265625","-0.0015869140625","-3.479003667831421","10.742186546325684","1.7700194120407104","106","-48","83","4"
4444,"-0.3360595703125","0.990966796875","-0.02294921875","-8.6669921875","10.986327171325684","-0.8544921278953552","106","-48","83","4"
4475,"-0.2900390625","0.893310546875","-0.061767578125","-8.4228515625","8.36181640625","-1.5869139432907104","106","-48","83","4"
4507,"-0.3046875","0.9881591796875","-0.048583984375","-2.44140625","8.48388671875","-0.2441406100988388","105","-52","91","4"
4542,"-0.3284912109375","0.8734130859375","-0.0098876953125","-1.8920897245407104","9.94873046875","-0.1831054538488388","105","-52","91","4"
4573,"-0.3314208984375","0.9124755859375","-0.0191650390625","-7.446288585662842","12.207030296325684","-0.54931640625","105","-52","91","4"
4604,"-0.302734375","0.8929443359375","-0.02783203125","-6.713866710662842","14.709471702575684","-1.220703125","106","-51","91","4"
4635,"-0.3128662109375","0.9193115234375","-0.0299072265625","-11.230467796325684","16.90673828125","-0.54931640625","106","-51","91","4"
4669,"-0.3204345703125","0.9088134765625","-0.0501708984375","-13.488768577575684","16.11328125","-2.0751953125","106","-51","91","4"
4700,"-0.3048095703125","0.93896484375","-0.0545654296875","-12.817381858825684","14.587401390075684","-1.5869139432907104","108","-48","85","4"
4731,"-0.29736328125","0.9378662109375","-0.0836181640625","-7.141112804412842","12.207030296325684","-1.3427733182907104","108","-48","85","4"
4764,"-0.307861328125","0.9256591796875","-0.0673828125","1.5258787870407104","10.375975608825684","-1.6479490995407104","108","-48","85","4"
4796,"-0.3150634765625","0.891357421875","-0.0452880859375","-3.356933355331421","10.681151390075684","-1.0986328125","110","-56","87","4"
4827,"-0.3143310546875","0.9315185546875","-0.05126953125","-0.4272460639476776","11.169432640075684","-1.2817381620407104","110","-56","87","4"
4858,"-0.294189453125","0.888427734375","-0.0589599609375","2.0751953125","12.207030296325684","-1.03759765625","110","-56","87","4"
4889,"-0.32568359375","0.910888671875","-0.0296630859375","0.0610351525247097","11.657713890075684","0.30517578125","110","-56","87","4"
4920,"-0.3065185546875","0.91064453125","-0.049072265625","-5.249022960662842","11.352538108825684","1.03759765625","108","-48","85","4"
4952,"-0.306640625","0.930908203125","-0.057373046875","-2.25830078125","11.108397483825684","1.5258787870407104","108","-48","85","4"
4988,"-0.322509765625","0.90380859375","-0.034423828125","0.4882812201976776","10.803221702575684","0.9765624403953552","108","-48","85","4"
5019,"-0.3177490234375","0.9007568359375","-0.040771484375","-3.417968511581421","9.70458984375","0.4272460639476776","107","-51","91","4"
5050,"-0.3121337890625","0.9132080078125","-0.05517578125","-3.967284917831421","8.30078125","0.9765624403953552","107","-51","91","4"
5083,"-0.3095703125","0.9227294921875","-0.056396484375","-2.563476324081421","8.23974609375","1.8920897245407104","107","-51","91","4"
5117,"-0.31494140625","0.9114990234375","-0.0626220703125","-2.44140625","6.774901866912842","3.051757574081421","110","-55","90","4"
5148,"-0.3209228515625","0.9075927734375","-0.0604248046875","-2.3193359375","4.94384765625","2.807616949081421","110","-55","90","4"
5179,"-0.3280029296875","0.91259765625","-0.054443359375","-3.295898199081421","3.845214605331421","2.685546636581421","110","-55","90","4"
5212,"-0.3253173828125","0.8992919921875","-0.04736328125","-2.3193359375","3.234863042831421","1.8920897245407104","107","-56","89","4"
5246,"-0.326904296875","0.920166015625","-0.0496826171875","-1.2817381620407104","2.13623046875","0.9155272841453552","107","-56","89","4"
5277,"-0.323974609375","0.914306640625","-0.05859375","-2.25830078125","0.4272460639476776","0.7324218153953552","107","-56","89","4"
5309,"-0.3238525390625","0.9176025390625","-0.060791015625","0.6713866591453552","-0.54931640625","1.7089842557907104","108","-55","88","4"
5345,"-0.322021484375","0.8875732421875","-0.055419921875","-0.1220703050494194","-1.8310545682907104","1.3427733182907104","108","-55","88","4"
5376,"-0.3302001953125","0.926025390625","-0.0645751953125","-0.54931640625","-3.417968511581421","1.4038084745407104","108","-55","88","4"
5412,"-0.3193359375","0.9091796875","-0.0592041015625","-0.1831054538488388","-5.493163585662842","2.50244140625","111","-48","89","4"
5445,"-0.326416015625","0.906982421875","-0.05615234375","2.13623046875","-6.774901866912842","3.479003667831421","111","-48","89","4"
5480,"-0.33447265625","0.913330078125","-0.0540771484375","-0.1220703050494194","-8.056640625","3.723144292831421","111","-48","89","4"
5511,"-0.333251953125","0.9097900390625","-0.0592041015625","2.13623046875","-9.033203125","3.662109136581421","106","-55","91","4"
5542,"-0.3316650390625","0.901611328125","-0.059326171875","4.0283203125","-10.375975608825684","3.173827886581421","106","-55","91","4"
5573,"-0.333740234375","0.900146484375","-0.0504150390625","4.21142578125","-10.314940452575684","2.868652105331421","106","-55","91","4"
5604,"-0.335205078125","0.9151611328125","-0.046630859375","2.44140625","-9.6435546875","1.9531248807907104","110","-52","88","4"
5635,"-0.3367919921875","0.91357421875","-0.056396484375","3.540038824081421","-9.27734375","0.4882812201976776","110","-52","88","4"
5666,"-0.33349609375","0.90869140625","-0.057373046875","3.784179449081421","-9.46044921875","0.3662109076976776","110","-52","88","4"
5697,"-0.333251953125","0.9051513671875","-0.0487060546875","4.33349609375","-9.82666015625","0.7934569716453552","109","-50","92","4"
5732,"-0.3363037109375","0.90771484375","-0.04296875","2.746581792831421","-10.192870140075684","0.4272460639476776","109","-50","92","4"
5767,"-0.3297119140625","0.9229736328125","-0.04248046875","5.798339366912842","-10.253905296325684","-1.7089842557907104","109","-50","92","4"
5798,"-0.33203125","0.9033203125","-0.045654296875","5.798339366912842","-9.8876953125","-1.4648436307907104","108","-51","92","4"
5829,"-0.3424072265625","0.9027099609375","-0.0352783203125","3.112792730331421","-9.70458984375","-0.7934569716453552","108","-51","92","4"
5860,"-0.3245849609375","0.9149169921875","-0.0498046875","1.6479490995407104","-9.765625","-0.9765624403953552","108","-51","92","4"
5892,"-0.31689453125","0.9112548828125","-0.05322265625","1.8920897245407104","-9.09423828125","-0.7934569716453552","109","-52","92","4"
5928,"-0.3275146484375","0.9033203125","-0.0167236328125","3.479003667831421","-6.225585460662842","-1.2817381620407104","109","-52","92","4"
5959,"-0.3414306640625","0.897216796875","-0.0296630859375","-0.4272460639476776","-4.2724609375","-2.01416015625","109","-52","92","4"
5990,"-0.3231201171875","0.92041015625","-0.0322265625","0.8544921278953552","-2.50244140625","-2.746581792831421","109","-52","92","4"
6021,"-0.3095703125","0.9091796875","-0.03955078125","-0.3662109076976776","-0.6103515625","-1.2817381620407104","112","-46","93","4"
6053,"-0.3121337890625","0.9241943359375","-0.0362548828125","-0.4882812201976776","1.2817381620407104","-1.220703125","112","-46","93","4"
6084,"-0.31591796875","0.90478515625","-0.0264892578125","-0.1220703050494194","4.5166015625","-0.7324218153953552","112","-46","93","4"
6119,"-0.31591796875","0.90673828125","-0.03466796875","-5.065917491912842","7.324218273162842","-1.8310545682907104","114","-56","90","4"
6153,"-0.3194580078125","0.9146728515625","-0.048583984375","-3.295898199081421","7.995604991912842","-1.03759765625","114","-56","90","4"
6184,"-0.326171875","0.9090576171875","-0.04150390625","-3.540038824081421","7.812499523162842","-0.0610351525247097","114","-56","90","4"
6215,"-0.319091796875","0.932861328125","-0.0584716796875","-5.249022960662842","7.568358898162842","0.9765624403953552","114","-56","87","4"
6249,"-0.3258056640625","0.932373046875","-0.0657958984375","-1.2817381620407104","5.981444835662842","1.7700194120407104","114","-56","87","4"
6284,"-0.32958984375","0.918701171875","-0.047607421875","2.807616949081421","4.5166015625","3.479003667831421","114","-56","87","4"
6315,"-0.3157958984375","0.8778076171875","-0.028564453125","3.845214605331421","5.432128429412842","3.540038824081421","107","-57","91","4"
6350,"-0.322509765625","0.9072265625","-0.031982421875","-3.234863042831421","8.11767578125","1.9531248807907104","107","-57","91","4"
6386,"-0.326416015625","0.9132080078125","-0.049560546875","-3.540038824081421","9.46044921875","1.2817381620407104","107","-57","91","4"
6417,"-0.3389892578125","0.90478515625","-0.046875","-3.173827886581421","9.765625","0.7934569716453552","110","-52","82","4"
6448,"-0.334228515625","0.9111328125","-0.052001953125","-4.150390625","9.3994140625","0.1831054538488388","110","-52","82","4"
6481,"-0.3377685546875","0.9119873046875","-0.0523681640625","-2.13623046875","8.9111328125","-0.9155272841453552","110","-52","82","4"
6512,"-0.33740234375","0.90283203125","-0.049560546875","-2.13623046875","8.1787109375","-2.685546636581421","107","-52","85","4"
6543,"-0.3319091796875","0.919189453125","-0.0556640625","-1.5258787870407104","7.507323741912842","-3.051757574081421","107","-52","85","4"
6578,"-0.3316650390625","0.905029296875","-0.048828125","-0.1831054538488388","7.507323741912842","-2.01416015625","107","-52","85","4"
6610,"-0.337890625","0.9095458984375","-0.047119140625","-2.3193359375","7.141112804412842","-1.5869139432907104","109","-55","85","4"
6641,"-0.3408203125","0.906494140625","-0.05810546875","-1.5869139432907104","6.225585460662842","-1.9531248807907104","109","-55","85","4"
6672,"-0.337890625","0.9132080078125","-0.0615234375","-2.624511480331421","5.126952648162842","-1.7089842557907104","109","-55","85","4"
6703,"-0.3306884765625","0.9139404296875","-0.0565185546875","-0.6713866591453552","4.5166015625","-0.30517578125","107","-47","87","4"
6734,"-0.3212890625","0.89208984375","-0.046875","0.0610351525247097","4.7607421875","0.6713866591453552","107","-47","87","4"
6768,"-0.3175048828125","0.9005126953125","-0.04150390625","-2.25830078125","5.0048828125","1.15966796875","107","-47","87","4"
6804,"-0.3138427734375","0.8819580078125","-0.0552978515625","-5.126952648162842","4.69970703125","2.624511480331421","111","-49","87","4"
6835,"-0.336181640625","0.9461669921875","-0.0333251953125","-3.173827886581421","4.69970703125","1.03759765625","111","-49","87","4"
6866,"-0.3289794921875","0.8984375","-0.0509033203125","-3.601073980331421","5.432128429412842","-0.7324218153953552","111","-49","87","4"
6897,"-0.333984375","0.912109375","-0.0679931640625","-3.479003667831421","3.601073980331421","-1.8310545682907104","111","-49","87","4"
6928,"-0.330322265625","0.9180908203125","-0.061767578125","-0.2441406100988388","2.197265625","-2.563476324081421","124","-49","87","4"
6961,"-0.3358154296875","0.8935546875","-0.05859375","-0.1220703050494194","1.5869139432907104","-0.7324218153953552","124","-49","87","4"
6992,"-0.3310546875","0.9119873046875","-0.0596923828125","-3.112792730331421","1.7089842557907104","0.4882812201976776","124","-49","87","4"
7027,"-0.3306884765625","0.911376953125","-0.0584716796875","-0.4272460639476776","1.6479490995407104","2.0751953125","114","-58","89","4"
7063,"-0.32568359375","0.923828125","-0.06640625","-0.54931640625","-0.1831054538488388","0.30517578125","114","-58","89","4"
7094,"-0.326416015625","0.9005126953125","-0.053466796875","1.6479490995407104","-0.9155272841453552","0.6713866591453552","115","-61","82","4"
7125,"-0.3253173828125","0.90576171875","-0.042236328125","1.03759765625","-0.4882812201976776","1.2817381620407104","115","-61","82","4"
7156,"-0.32568359375","0.909423828125","-0.0478515625","-0.4272460639476776","0.1831054538488388","1.6479490995407104","115","-61","82","4"
7187,"-0.3233642578125","0.906494140625","-0.05126953125","0","-0.1831054538488388","1.8310545682907104","115","-61","82","4"
7218,"-0.3428955078125","0.9049072265625","-0.0491943359375","0.30517578125","-0.8544921278953552","1.5258787870407104","110","-59","84","4"
7252,"-0.3328857421875","0.9056396484375","-0.051513671875","-1.7700194120407104","-1.15966796875","1.15966796875","110","-59","84","4"
7283,"-0.3310546875","0.9248046875","-0.060791015625","0.7324218153953552","-1.5869139432907104","1.5258787870407104","110","-59","84","4"
7314,"-0.34033203125","0.89599609375","-0.052978515625","0.1831054538488388","-2.13623046875","0.9155272841453552","107","-55","84","4"
7348,"-0.3338623046875","0.9140625","-0.05712890625","0.1220703050494194","-2.13623046875","-0.30517578125","107","-55","84","4"
7379,"-0.33203125","0.9085693359375","-0.05517578125","1.0986328125","-2.3193359375","-0.54931640625","107","-55","84","4"
7410,"-0.333251953125","0.8995361328125","-0.0455322265625","-0.30517578125","-2.38037109375","-1.15966796875","106","-56","79","4"
7441,"-0.3304443359375","0.9107666015625","-0.0531005859375","-0.4272460639476776","-1.9531248807907104","-1.03759765625","106","-56","79","4"
7472,"-0.3348388671875","0.9041748046875","-0.05029296875","-0.9765624403953552","-1.4648436307907104","0.3662109076976776","106","-56","79","4"
7508,"-0.3289794921875","0.902099609375","-0.0487060546875","-0.4272460639476776","-1.0986328125","1.15966796875","107","-52","85","4"
7539,"-0.3302001953125","0.9178466796875","-0.055419921875","-2.01416015625","-1.03759765625","0.6103515625","107","-52","85","4"
7570,"-0.326416015625","0.9112548828125","-0.0645751953125","1.2817381620407104","-1.2817381620407104","-0.54931640625","107","-52","85","4"
7603,"-0.335205078125","0.9102783203125","-0.0621337890625","2.0751953125","-1.4648436307907104","-0.7324218153953552","105","-51","83","4"
7634,"-0.3428955078125","0.8974609375","-0.0560302734375","0.0610351525247097","-0.6713866591453552","-0.9155272841453552","105","-51","83","4"
7665,"-0.3414306640625","0.90966796875","-0.0574951171875","0.1220703050494194","-0.4882812201976776","-0.54931640625","105","-51","83","4"
7697,"-0.333984375","0.908935546875","-0.0572509765625","0.30517578125","-1.0986328125","0.54931640625","105","-51","83","4"
7733,"-0.3277587890625","0.90185546875","-0.041259765625","-0.6713866591453552","-0.9155272841453552","1.2817381620407104","106","-48","83","4"
7768,"-0.32958984375","0.9080810546875","-0.041748046875","-2.25830078125","-0.2441406100988388","0.30517578125","106","-48","83","4"
7800,"-0.3323974609375","0.91064453125","-0.052001953125","-3.662109136581421","-0.1831054538488388","0.1831054538488388","107","-53","90","4"
7832,"-0.3448486328125","0.9171142578125","-0.07080078125","-2.44140625","-0.7934569716453552","-0.3662109076976776","107","-53","90","4"
7867,"-0.335205078125","0.915283203125","-0.0732421875","2.01416015625","-1.5258787870407104","-1.4038084745407104","107","-53","90","4"
7898,"-0.338623046875","0.9073486328125","-0.061279296875","1.15966796875","-1.0986328125","-1.7700194120407104","110","-54","87","4"
7929,"-0.3306884765625","0.8984375","-0.06689453125","2.3193359375","-0.9765624403953552","-0.9765624403953552","110","-54","87","4"
7965,"-0.327392578125","0.9156494140625","-0.05810546875","0.30517578125","-0.3662109076976776","-0.1831054538488388","110","-54","87","4"
7996,"-0.324951171875","0.9124755859375","-0.0579833984375","0.1220703050494194","0.1220703050494194","-0.7934569716453552","106","-48","84","4"
8027,"-0.3297119140625","0.9229736328125","-0.0506591796875","0","0.30517578125","-1.0986328125","106","-48","84","4"
8062,"-0.3240966796875","0.8939208984375","-0.0491943359375","1.5258787870407104","0.30517578125","-1.220703125","106","-48","84","4"
8093,"-0.3265380859375","0.91064453125","-0.0537109375","-1.0986328125","-0.0610351525247097","-1.0986328125","106","-48","84","4"
8126,"-0.3253173828125","0.8961181640625","-0.051025390625","-0.1831054538488388","0.3662109076976776","-0.1220703050494194","108","-52","91","4"
8158,"-0.3238525390625","0.9140625","-0.061767578125","-2.0751953125","0.6103515625","-0.4272460639476776","108","-52","91","4"
8192,"-0.322509765625","0.9110107421875","-0.0655517578125","-0.30517578125","1.03759765625","-0.6713866591453552","108","-52","91","4"
8228,"-0.333251953125","0.9134521484375","-0.0703125","-0.7934569716453552","0.6103515625","-0.4272460639476776","109","-46","90","4"
8259,"-0.32666015625","0.91015625","-0.072265625","0.30517578125","-0.8544921278953552","0.3662109076976776","109","-46","90","4"
8294,"-0.331787109375","0.916748046875","-0.0594482421875","2.25830078125","-1.4038084745407104","1.220703125","109","-46","90","4"
8327,"-0.3331298828125","0.9019775390625","-0.0589599609375","0","-1.15966796875","0.8544921278953552","105","-52","92","4"
8358,"-0.326416015625","0.91162109375","-0.0635986328125","0.6713866591453552","-1.8920897245407104","0.30517578125","105","-52","92","4"
8389,"-0.3336181640625","0.8956298828125","-0.0487060546875","2.25830078125","-1.3427733182907104","-0.2441406100988388","105","-52","92","4"
8423,"-0.3302001953125","0.9031982421875","-0.0543212890625","1.220703125","-0.9765624403953552","-0.4272460639476776","112","-53","91","4"
8458,"-0.3294677734375","0.9022216796875","-0.0576171875","-0.30517578125","-1.03759765625","-0.54931640625","112","-53","91","4"
8492,"-0.3199462890625","0.9154052734375","-0.0670166015625","1.4038084745407104","-1.0986328125","-0.30517578125","112","-53","91","4"
8523,"-0.324951171875","0.9183349609375","-0.0589599609375","0.54931640625","-0.8544921278953552","-0.1831054538488388","111","-50","90","4"
8556,"-0.32958984375","0.9097900390625","-0.05126953125","1.7089842557907104","-0.7324218153953552","-0.1831054538488388","111","-50","90","4"
8587,"-0.3306884765625","0.90771484375","-0.0504150390625","0.9765624403953552","-0.9155272841453552","-0.6713866591453552","111","-50","90","4"
8618,"-0.330078125","0.9068603515625","-0.0535888671875","0.9155272841453552","-1.15966796875","-0.4272460639476776","109","-50","87","4"
8649,"-0.3287353515625","0.907958984375","-0.05029296875","1.03759765625","-0.7934569716453552","-0.54931640625","109","-50","87","4"
8680,"-0.3258056640625","0.9100341796875","-0.054443359375","0.4882812201976776","-0.4272460639476776","-0.4882812201976776","109","-50","87","4"
8714,"-0.328369140625","0.9114990234375","-0.054443359375","0.6103515625","-0.4882812201976776","-0.6103515625","108","-48","85","4"
8745,"-0.326904296875","0.9100341796875","-0.0570068359375","0.30517578125","-0.3662109076976776","-0.9155272841453552","108","-48","85","4"
8779,"-0.3251953125","0.911865234375","-0.0587158203125","0.9765624403953552","-0.54931640625","-0.3662109076976776","108","-48","85","4"
8810,"-0.32470703125","0.907470703125","-0.0513916015625","1.8920897245407104","-0.4272460639476776","-0.4272460639476776","110","-53","86","4"
8841,"-0.32275390625","0.9117431640625","-0.054931640625","-0.1220703050494194","-0.1220703050494194","-0.6103515625","110","-53","86","4"
8872,"-0.331298828125","0.91748046875","-0.0511474609375","0.1831054538488388","0.1831054538488388","-0.1220703050494194","110","-53","86","4"
8903,"-0.3211669921875","0.90576171875","-0.0528564453125","0.7934569716453552","0.1220703050494194","-0.6103515625","113","-53","89","4"
8934,"-0.324462890625","0.9127197265625","-0.0517578125","0.2441406100988388","0.30517578125","0.1220703050494194","113","-53","89","4"
8965,"-0.3267822265625","0.9063720703125","-0.044921875","0.2441406100988388","0.3662109076976776","-0.2441406100988388","113","-53","89","4"
8998,"-0.3289794921875","0.91455078125","-0.051025390625","-0.4882812201976776","0.2441406100988388","-0.6713866591453552","108","-50","89","4"
9034,"-0.3250732421875","0.9112548828125","-0.0570068359375","-0.0610351525247097","0.2441406100988388","-0.1831054538488388","108","-50","89","4"
9065,"-0.32275390625","0.914306640625","-0.0570068359375","-1.15966796875","0.0610351525247097","0.1220703050494194","108","-50","89","4"
9096,"-0.3226318359375","0.904052734375","-0.0592041015625","0.30517578125","-0.0610351525247097","0","109","-55","91","4"
9127,"-0.322509765625","0.9150390625","-0.052734375","-0.4272460639476776","-0.1220703050494194","0.1220703050494194","109","-55","91","4"
9160,"-0.317138671875","0.9083251953125","-0.0533447265625","-0.1831054538488388","0.4272460639476776","0.4882812201976776","109","-55","91","4"
9192,"-0.3250732421875","0.92138671875","-0.0533447265625","0","0.4272460639476776","0.30517578125","109","-55","91","4"
9226,"-0.3287353515625","0.9022216796875","-0.0545654296875","-0.1220703050494194","0","0.3662109076976776","108","-53","91","4"
9259,"-0.328125","0.9075927734375","-0.053466796875","0.1220703050494194","-0.2441406100988388","0.30517578125","108","-53","91","4"
9291,"-0.330078125","0.9144287109375","-0.05517578125","-0.7324218153953552","0","0.30517578125","108","-53","91","4"
9327,"-0.3250732421875","0.91162109375","-0.0616455078125","-0.54931640625","-0.30517578125","0.4272460639476776","110","-55","87","4"
9362,"-0.3233642578125","0.9052734375","-0.054931640625","0.6713866591453552","-0.7934569716453552","0.30517578125","110","-55","87","4"
9397,"-0.3260498046875","0.916748046875","-0.0555419921875","-1.03759765625","-0.6713866591453552","0","107","-51","87","4"
9428,"-0.3304443359375","0.9066162109375","-0.056640625","0.1831054538488388","-0.8544921278953552","-0.1831054538488388","107","-51","87","4"
9464,"-0.326904296875","0.91748046875","-0.063232421875","1.03759765625","-1.3427733182907104","-0.0610351525247097","107","-51","87","4"
9497,"-0.3145751953125","0.91357421875","-0.069091796875","1.6479490995407104","-1.4648436307907104","-0.1220703050494194","107","-51","87","4"
9528,"-0.3228759765625","0.9019775390625","-0.054931640625","3.234863042831421","-1.7089842557907104","-1.2817381620407104","110","-53","87","4"
9559,"-0.3377685546875","0.8948974609375","-0.0595703125","2.50244140625","-2.3193359375","-1.03759765625","110","-53","87","4"
9590,"-0.330322265625","0.8779296875","-0.0533447265625","1.4038084745407104","-2.868652105331421","2.44140625","110","-53","87","4"
9621,"-0.3350830078125","0.9320068359375","-0.060791015625","-1.7700194120407104","-3.662109136581421","2.868652105331421","105","-51","91","4"
9656,"-0.3306884765625","0.909912109375","-0.0711669921875","1.0986328125","-5.859374523162842","2.624511480331421","105","-51","91","4"
9687,"-0.327880859375","0.915771484375","-0.0655517578125","0.1831054538488388","-6.469726085662842","2.685546636581421","105","-51","91","4"
9718,"-0.3358154296875","0.911865234375","-0.05810546875","3.723144292831421","-8.056640625","1.03759765625","110","-51","93","4"
9749,"-0.3385009765625","0.8978271484375","-0.05419921875","2.746581792831421","-8.6669921875","0.6103515625","110","-51","93","4"
9780,"-0.3341064453125","0.91259765625","-0.067138671875","1.4648436307907104","-8.6669921875","0.7934569716453552","110","-51","93","4"
9814,"-0.3306884765625","0.907470703125","-0.063232421875","2.990722417831421","-8.7890625","1.4648436307907104","111","-49","82","4"
9849,"-0.335205078125","0.9036865234375","-0.0577392578125","2.746581792831421","-9.09423828125","0.7324218153953552","111","-49","82","4"
9880,"-0.33056640625","0.91357421875","-0.0577392578125","2.929687261581421","-9.21630859375","0.6103515625","111","-49","82","4"
9914,"-0.3309326171875","0.9095458984375","-0.056640625","4.21142578125","-9.1552734375","0.6103515625","107","-51","91","4"
9945,"-0.326171875","0.9052734375","-0.05712890625","3.723144292831421","-8.60595703125","0.2441406100988388","107","-51","91","4"
9976,"-0.3270263671875","0.9051513671875","-0.0523681640625","3.356933355331421","-8.30078125","0.1220703050494194","107","-51","91","4"
10007,"-0.329833984375","0.9122314453125","-0.048095703125","3.723144292831421","-7.995604991912842","0.1831054538488388","110","-49","87","4"
10038,"-0.3275146484375","0.9049072265625","-0.0465087890625","3.601073980331421","-7.324218273162842","0.1220703050494194","110","-49","87","4"
10069,"-0.3333740234375","0.91455078125","-0.0506591796875","2.624511480331421","-6.530761241912842","0.30517578125","110","-49","87","4"
10102,"-0.3291015625","0.9117431640625","-0.051513671875","3.479003667831421","-6.103515148162842","0.4882812201976776","110","-50","83","4"
10133,"-0.32373046875","0.9052734375","-0.0526123046875","4.08935546875","-5.615233898162842","0.1220703050494194","110","-50","83","4"
10164,"-0.33349609375","0.91259765625","-0.040283203125","2.3193359375","-5.0048828125","-0.1831054538488388","110","-50","83","4"
10195,"-0.3310546875","0.913330078125","-0.0399169921875","3.295898199081421","-4.08935546875","0.8544921278953552","110","-38","89","4"
10226,"-0.326416015625","0.8995361328125","-0.04052734375","1.3427733182907104","-2.868652105331421","0.6103515625","110","-38","89","4"
10257,"-0.3284912109375","0.9283447265625","-0.041748046875","0.2441406100988388","-1.8920897245407104","0.54931640625","110","-38","89","4"
10288,"-0.3267822265625","0.90673828125","-0.0411376953125","2.01416015625","-1.03759765625","1.03759765625","110","-38","89","4"
10320,"-0.324951171875","0.908203125","-0.0374755859375","0.1831054538488388","0.7934569716453552","0.9765624403953552","108","-48","85","4"
10355,"-0.3338623046875","0.9053955078125","-0.0355224609375","-1.220703125","2.563476324081421","0.6103515625","108","-48","85","4"
10391,"-0.329833984375","0.9063720703125","-0.03857421875","-2.50244140625","4.08935546875","-0.54931640625","108","-48","85","4"
10422,"-0.3336181640625","0.9273681640625","-0.037109375","-2.44140625","5.310058116912842","0","109","-53","90","4"
10453,"-0.3250732421875","0.8970947265625","-0.04150390625","-2.01416015625","6.530761241912842","-0.4882812201976776","109","-53","90","4"
10485,"-0.3321533203125","0.9205322265625","-0.0428466796875","-3.662109136581421","6.774901866912842","-0.7324218153953552","109","-53","90","4"
10516,"-0.333251953125","0.9031982421875","-0.045166015625","-2.563476324081421","7.568358898162842","-0.7934569716453552","108","-43","87","4"
10579,"-0.3341064453125","0.90380859375","-0.0479736328125","-3.417968511581421","9.27734375","-0.4272460639476776","108","-43","87","4"
10615,"-0.33837890625","0.90673828125","-0.0501708984375","-4.45556640625","9.82666015625","-0.7934569716453552","115","-53","93","4"
10646,"-0.3297119140625","0.908203125","-0.05517578125","-4.08935546875","10.009765625","-0.9155272841453552","115","-53","93","4"
10680,"-0.33447265625","0.904541015625","-0.0517578125","-3.112792730331421","10.314940452575684","-0.8544921278953552","115","-53","93","4"
10715,"-0.3310546875","0.9111328125","-0.0562744140625","-5.065917491912842","10.437010765075684","-0.7324218153953552","110","-50","90","4"
10751,"-0.3310546875","0.8974609375","-0.052978515625","-2.563476324081421","9.8876953125","-0.54931640625","110","-50","90","4"
10785,"-0.33251953125","0.906494140625","-0.0574951171875","-4.2724609375","9.6435546875","-0.7934569716453552","110","-50","90","4"
10817,"-0.3287353515625","0.9093017578125","-0.05322265625","-3.234863042831421","10.009765625","-0.9155272841453552","109","-49","89","4"
10852,"-0.337890625","0.904541015625","-0.0589599609375","-4.0283203125","10.192870140075684","-0.9765624403953552","109","-49","89","4"
10888,"-0.338623046875","0.9219970703125","-0.0635986328125","-1.9531248807907104","9.09423828125","-1.5869139432907104","109","-49","89","4"
10919,"-0.3271484375","0.9000244140625","-0.0718994140625","-0.7934569716453552","7.812499523162842","-2.929687261581421","112","-51","89","4"
10951,"-0.326904296875","0.9271240234375","-0.0528564453125","2.929687261581421","7.751464366912842","-5.676269054412842","112","-51","89","4"
10982,"-0.312255859375","0.8995361328125","-0.0615234375","5.0048828125","8.97216796875","-6.835937023162842","112","-51","89","4"
11016,"-0.3436279296875","0.9063720703125","-0.0791015625","2.3193359375","5.859374523162842","4.33349609375","107","-49","89","4"
11051,"-0.375732421875","0.8975830078125","-0.06201171875","-3.234863042831421","4.08935546875","13.977049827575684","107","-49","89","4"
11082,"-0.359619140625","0.9151611328125","-0.0430908203125","-4.7607421875","2.685546636581421","14.343260765075684","107","-49","89","4"
11113,"-0.3525390625","0.8828125","-0.0391845703125","-3.234863042831421","0.1831054538488388","11.779784202575684","113","-51","93","4"
11144,"-0.34912109375","0.8924560546875","-0.0384521484375","-2.3193359375","-2.44140625","8.60595703125","113","-51","93","4"
11177,"-0.349365234375","0.897705078125","-0.021240234375","-2.25830078125","-2.929687261581421","6.896972179412842","113","-51","93","4"
11212,"-0.3372802734375","0.8839111328125","-0.0606689453125","-4.8828125","-3.479003667831421","6.347655773162842","114","-50","94","4"
11248,"-0.33935546875","0.9246826171875","-0.0911865234375","-3.540038824081421","-3.662109136581421","8.11767578125","114","-50","94","4"
11279,"-0.353271484375","0.9093017578125","-0.0887451171875","-1.2817381620407104","-3.723144292831421","8.056640625","114","-50","94","4"
11310,"-0.355712890625","0.893310546875","-0.0797119140625","0.30517578125","-2.38037109375","6.713866710662842","116","-50","97","4"
11341,"-0.3660888671875","0.8759765625","-0.0675048828125","3.112792730331421","-1.6479490995407104","2.868652105331421","116","-50","97","4"
11372,"-0.372314453125","0.8951416015625","-0.056396484375","2.13623046875","-1.15966796875","2.624511480331421","116","-50","97","4"
11406,"-0.376953125","0.8809814453125","-0.0623779296875","1.3427733182907104","-1.5258787870407104","2.25830078125","114","-49","95","4"
11437,"-0.37744140625","0.90966796875","-0.058349609375","1.15966796875","-2.25830078125","1.2817381620407104","114","-49","95","4"
11469,"-0.3726806640625","0.9088134765625","-0.0595703125","2.197265625","-2.38037109375","0.54931640625","114","-49","95","4"
11500,"-0.361083984375","0.892822265625","-0.0640869140625","4.2724609375","-3.906249761581421","-0.6103515625","113","-45","91","4"
11531,"-0.37939453125","0.8892822265625","-0.0377197265625","9.3994140625","-4.45556640625","-3.662109136581421","113","-45","91","4"
11562,"-0.3736572265625","0.8958740234375","-0.033203125","5.920409679412842","-5.798339366912842","-7.873534679412842","113","-45","91","4"
11593,"-0.3896484375","0.8812255859375","-0.0301513671875","5.187987804412842","-6.042479991912842","-8.9111328125","113","-45","91","4"
11624,"-0.3896484375","0.8956298828125","-0.0540771484375","2.01416015625","-5.371093273162842","-11.047362327575684","109","-50","92","4"
11655,"-0.363525390625","0.9130859375","-0.0806884765625","3.295898199081421","-5.737304210662842","-11.169432640075684","109","-50","92","4"
11686,"-0.3563232421875","0.921875","-0.06591796875","5.737304210662842","-5.798339366912842","-8.7890625","109","-50","92","4"
11717,"-0.3427734375","0.923828125","-0.05078125","5.859374523162842","-4.5166015625","-8.4228515625","107","-45","93","4"
11749,"-0.3397216796875","0.896240234375","-0.03271484375","6.835937023162842","-3.540038824081421","-6.835937023162842","107","-45","93","4"
11785,"-0.3326416015625","0.898193359375","-0.005126953125","4.08935546875","-1.03759765625","-7.812499523162842","107","-45","93","4"
11816,"-0.291748046875","0.879150390625","-0.04150390625","-0.54931640625","0.1220703050494194","-8.23974609375","115","-48","89","4"
11881,"-0.3111572265625","0.913818359375","-0.0496826171875","5.371093273162842","-0.3662109076976776","-4.8828125","115","-48","89","4"
11912,"-0.3251953125","0.88818359375","-0.02880859375","4.7607421875","0.4882812201976776","-3.356933355331421","109","-52","85","4"
11943,"-0.32958984375","0.9095458984375","-0.0426025390625","-1.4038084745407104","-1.15966796875","-1.9531248807907104","109","-52","85","4"
11974,"-0.33544921875","0.911865234375","-0.0450439453125","2.563476324081421","-3.295898199081421","0.0610351525247097","109","-52","85","4"
12005,"-0.3349609375","0.9185791015625","-0.0419921875","1.4648436307907104","-5.554198741912842","0.0610351525247097","108","-52","87","4"
12040,"-0.3345947265625","0.9111328125","-0.0377197265625","3.540038824081421","-7.995604991912842","-0.7324218153953552","108","-52","87","4"
12071,"-0.322998046875","0.918701171875","-0.044189453125","5.0048828125","-8.9111328125","-1.8920897245407104","108","-52","87","4"
12106,"-0.3304443359375","0.9041748046875","-0.0281982421875","6.652831554412842","-9.46044921875","-2.01416015625","109","-53","89","4"
12137,"-0.32763671875","0.89013671875","-0.024169921875","2.807616949081421","-8.7890625","-1.03759765625","109","-53","89","4"
12171,"-0.314453125","0.9022216796875","-0.0369873046875","-2.50244140625","-7.507323741912842","0.6103515625","109","-53","89","4"
12202,"-0.3184814453125","0.9384765625","-0.0452880859375","-2.563476324081421","-7.019042491912842","1.5869139432907104","109","-52","91","4"
12234,"-0.310546875","0.915771484375","-0.0423583984375","1.5869139432907104","-7.446288585662842","0.9765624403953552","109","-52","91","4"
12265,"-0.3079833984375","0.908935546875","-0.03466796875","3.662109136581421","-8.056640625","0.6713866591453552","109","-52","91","4"
12297,"-0.3040771484375","0.917724609375","-0.03564453125","2.624511480331421","-8.30078125","0.9155272841453552","106","-49","91","4"
12330,"-0.3115234375","0.93212890625","-0.0350341796875","3.784179449081421","-7.141112804412842","1.4648436307907104","106","-49","91","4"
12361,"-0.30908203125","0.90576171875","-0.03271484375","4.8828125","-6.286620616912842","1.8920897245407104","106","-49","91","4"
12392,"-0.328125","0.922119140625","-0.0272216796875","3.662109136581421","-5.554198741912842","2.746581792831421","106","-49","91","4"
12424,"-0.3265380859375","0.8812255859375","-0.0040283203125","5.432128429412842","-2.807616949081421","2.685546636581421","111","-48","93","4"
12455,"-0.310546875","0.90185546875","-0.015380859375","0.1220703050494194","0","2.50244140625","111","-48","93","4"
12486,"-0.319580078125","0.9432373046875","-0.0123291015625","-2.13623046875","2.13623046875","3.662109136581421","111","-48","93","4"
12517,"-0.3292236328125","0.922607421875","-0.00439453125","-1.5869139432907104","3.234863042831421","3.601073980331421","110","-44","89","4"
12548,"-0.3370361328125","0.9097900390625","0.0064697265625","-2.13623046875","4.0283203125","2.868652105331421","110","-44","89","4"
12579,"-0.3228759765625","0.89306640625","0.007080078125","-2.44140625","5.737304210662842","0.9155272841453552","110","-44","89","4"
12610,"-0.3232421875","0.9195556640625","0.0032958984375","-5.554198741912842","8.36181640625","-1.5258787870407104","108","-53","94","4"
12645,"-0.3177490234375","0.919677734375","-0.006103515625","-5.493163585662842","10.742186546325684","-2.38037109375","108","-53","94","4"
12676,"-0.3240966796875","0.921142578125","-0.022216796875","-5.493163585662842","13.305663108825684","-1.7700194120407104","108","-53","94","4"
12707,"-0.3206787109375","0.8992919921875","-0.0318603515625","-5.310058116912842","14.831542015075684","-1.15966796875","112","-49","88","4"
12742,"-0.322265625","0.9093017578125","-0.035400390625","-8.1787109375","17.27294921875","-0.7934569716453552","112","-49","88","4"
12777,"-0.3243408203125","0.91015625","-0.0478515625","-7.873534679412842","17.27294921875","0.1831054538488388","112","-49","88","4"
12808,"-0.3314208984375","0.9210205078125","-0.047119140625","-6.469726085662842","17.27294921875","0.8544921278953552","107","-52","89","4"
12841,"-0.33984375","0.9039306640625","-0.0374755859375","-6.530761241912842","17.822265625","0.9155272841453552","107","-52","89","4"
12877,"-0.336181640625","0.8970947265625","-0.034423828125","-5.737304210662842","18.00537109375","0.30517578125","107","-52","89","4"
12908,"-0.331787109375","0.9024658203125","-0.0369873046875","-6.225585460662842","18.1884765625","-1.2817381620407104","107","-54","89","4"
12939,"-0.3348388671875","0.905517578125","-0.0364990234375","-6.469726085662842","18.310546875","-1.8310545682907104","107","-54","89","4"
12970,"-0.33642578125","0.9114990234375","-0.0435791015625","-7.141112804412842","17.578125","-1.7700194120407104","107","-54","89","4"
13001,"-0.338134765625","0.917236328125","-0.0445556640625","-6.652831554412842","16.6015625","-1.7700194120407104","113","-51","91","4"
13032,"-0.335693359375","0.9072265625","-0.050537109375","-5.676269054412842","15.808104515075684","-1.3427733182907104","113","-51","91","4"
13065,"-0.33056640625","0.9090576171875","-0.0478515625","-5.554198741912842","13.916014671325684","-0.7324218153953552","113","-51","91","4"
13100,"-0.3271484375","0.905517578125","-0.053466796875","-4.82177734375","12.817381858825684","-0.54931640625","108","-55","94","4"
13131,"-0.33203125","0.9095458984375","-0.0531005859375","-5.310058116912842","12.451170921325684","0.1220703050494194","108","-55","94","4"
13167,"-0.33544921875","0.91650390625","-0.05859375","-5.249022960662842","11.962889671325684","0.0610351525247097","108","-55","94","4"
13198,"-0.3316650390625","0.8939208984375","-0.051025390625","-3.845214605331421","10.681151390075684","0.2441406100988388","108","-55","94","4"
13229,"-0.3359375","0.904052734375","-0.0419921875","-4.08935546875","9.1552734375","1.03759765625","113","-48","91","4"
13264,"-0.322265625","0.9052734375","-0.0506591796875","-4.2724609375","8.48388671875","1.15966796875","113","-48","91","4"
13298,"-0.3172607421875","0.9158935546875","-0.0552978515625","-4.08935546875","9.46044921875","1.4038084745407104","115","-56","87","4"
13330,"-0.3153076171875","0.902587890625","-0.0556640625","-3.723144292831421","9.21630859375","2.25830078125","115","-56","87","4"
13366,"-0.332763671875","0.9013671875","-0.039794921875","-3.723144292831421","7.202147960662842","2.746581792831421","115","-56","87","4"
13397,"-0.3558349609375","0.88818359375","-0.0445556640625","-1.4648436307907104","4.69970703125","2.3193359375","111","-54","90","4"
13428,"-0.35986328125","0.9068603515625","-0.059326171875","-3.051757574081421","4.0283203125","2.685546636581421","111","-54","90","4"
13462,"-0.3387451171875","0.9217529296875","-0.0770263671875","-0.7934569716453552","2.3193359375","4.39453125","111","-54","90","4"
13498,"-0.35009765625","0.91650390625","-0.0745849609375","0.4882812201976776","0.3662109076976776","4.69970703125","111","-54","90","4"
13529,"-0.36083984375","0.90869140625","-0.057861328125","-0.4272460639476776","-1.8310545682907104","3.479003667831421","113","-56","93","4"
13560,"-0.356201171875","0.9061279296875","-0.05078125","1.6479490995407104","-4.39453125","3.479003667831421","113","-56","93","4"
13595,"-0.3482666015625","0.887451171875","-0.0472412109375","0.8544921278953552","-7.690429210662842","2.624511480331421","113","-56","93","4"
13626,"-0.3533935546875","0.9129638671875","-0.0262451171875","2.868652105331421","-8.1787109375","2.01416015625","113","-56","91","4"
13657,"-0.3377685546875","0.8834228515625","-0.040771484375","-0.4272460639476776","-8.1787109375","0.6103515625","113","-56","91","4"
13688,"-0.3466796875","0.9176025390625","-0.045166015625","3.051757574081421","-7.934569835662842","-0.4272460639476776","113","-56","91","4"
13722,"-0.3494873046875","0.89306640625","-0.0352783203125","-0.0610351525247097","-5.371093273162842","-1.5869139432907104","113","-54","92","4"
13753,"-0.3424072265625","0.896484375","-0.0938720703125","-3.417968511581421","-6.164550304412842","-1.6479490995407104","113","-54","92","4"
13784,"-0.36376953125","0.90966796875","-0.0692138671875","5.187987804412842","-8.7890625","-2.25830078125","113","-54","92","4"
13815,"-0.3558349609375","0.9039306640625","-0.06689453125","1.8920897245407104","-8.6669921875","-2.50244140625","116","-56","93","4"
13846,"-0.3480224609375","0.9180908203125","-0.0758056640625","3.356933355331421","-9.033203125","-2.44140625","116","-56","93","4"
13877,"-0.338134765625","0.8929443359375","-0.060302734375","5.859374523162842","-9.58251953125","-1.5258787870407104","116","-56","93","4"
13908,"-0.3349609375","0.915283203125","-0.0552978515625","5.126952648162842","-10.070799827575684","-1.4038084745407104","110","-53","93","4"
13939,"-0.3411865234375","0.892822265625","-0.0469970703125","5.493163585662842","-10.986327171325684","-1.7700194120407104","110","-53","93","4"
13970,"-0.3460693359375","0.9017333984375","-0.0382080078125","5.310058116912842","-11.474608421325684","-1.7089842557907104","110","-53","93","4"
14001,"-0.337890625","0.9124755859375","-0.045166015625","5.615233898162842","-12.634276390075684","-1.4038084745407104","113","-47","88","4"
14032,"-0.3408203125","0.913330078125","-0.0433349609375","6.958007335662842","-13.366698265075684","-1.2817381620407104","113","-47","88","4"
14065,"-0.3350830078125","0.8985595703125","-0.038330078125","5.187987804412842","-13.305663108825684","-1.4648436307907104","113","-47","88","4"
14096,"-0.3319091796875","0.898193359375","-0.038330078125","6.469726085662842","-12.329100608825684","-2.563476324081421","113","-47","88","4"
14127,"-0.33349609375","0.897705078125","-0.0390625","2.3193359375","-11.413573265075684","-2.990722417831421","109","-49","89","4"
14158,"-0.3271484375","0.918701171875","-0.058837890625","3.173827886581421","-11.291502952575684","-2.13623046875","109","-49","89","4"
14191,"-0.3382568359375","0.9376220703125","-0.063720703125","10.131834983825684","-13.366698265075684","2.3193359375","109","-49","89","4"
14226,"-0.3482666015625","0.903076171875","-0.034912109375","11.901854515075684","-12.817381858825684","8.6669921875","107","-50","93","4"
14257,"-0.3289794921875","0.8590087890625","-0.028076171875","6.042479991912842","-9.33837890625","13.488768577575684","107","-50","93","4"
14288,"-0.3653564453125","0.8907470703125","0.000244140625","2.44140625","-2.929687261581421","21.118162155151367","107","-50","93","4"
14319,"-0.374267578125","0.849853515625","0.0037841796875","-8.23974609375","3.173827886581421","22.888181686401367","109","-48","94","4"
14350,"-0.3599853515625","0.8961181640625","-0.036865234375","-17.39501953125","2.990722417831421","19.287109375","109","-48","94","4"
14381,"-0.373291015625","0.9217529296875","-0.043212890625","-11.596678733825684","-0.54931640625","19.53125","109","-48","94","4"
14416,"-0.3824462890625","0.9173583984375","-0.049560546875","-7.507323741912842","-4.7607421875","9.8876953125","113","-47","92","4"
14452,"-0.385986328125","0.9002685546875","-0.0731201171875","-8.30078125","-5.798339366912842","-8.11767578125","113","-47","92","4"
14487,"-0.340576171875","0.9989013671875","-0.064697265625","5.737304210662842","-11.474608421325684","1.4648436307907104","113","-47","92","4"
14518,"-0.3985595703125","0.8565673828125","-0.052490234375","2.563476324081421","-12.207030296325684","-8.60595703125","118","-55","91","4"
14549,"-0.3961181640625","0.898193359375","-0.0450439453125","3.906249761581421","-12.573241233825684","-14.343260765075684","118","-55","91","4"
14580,"-0.3846435546875","0.9029541015625","-0.0498046875","5.187987804412842","-11.474608421325684","-16.66259765625","118","-55","91","4"
14611,"-0.3604736328125","0.9029541015625","-0.0584716796875","13.061522483825684","-8.85009765625","-14.221190452575684","114","-54","90","4"
14642,"-0.3155517578125","0.8616943359375","-0.056884765625","11.413573265075684","-3.845214605331421","-10.070799827575684","114","-54","90","4"
14676,"-0.312255859375","0.8590087890625","-0.0306396484375","3.417968511581421","2.929687261581421","-2.624511480331421","114","-54","90","4"
14707,"-0.3387451171875","0.880859375","-0.021240234375","-3.173827886581421","5.859374523162842","-0.6713866591453552","116","-51","94","4"
14742,"-0.3348388671875","0.9024658203125","-0.051513671875","-0.9155272841453552","6.591796398162842","-3.479003667831421","116","-51","94","4"
14773,"-0.3326416015625","0.909912109375","-0.0693359375","-2.563476324081421","7.446288585662842","-5.615233898162842","116","-51","94","4"
14806,"-0.351806640625","0.9346923828125","-0.05859375","0.1831054538488388","9.21630859375","-5.493163585662842","111","-60","93","4"
14841,"-0.358154296875","0.896484375","-0.0457763671875","-0.7934569716453552","9.33837890625","-3.479003667831421","111","-60","93","4"
14873,"-0.3748779296875","0.9073486328125","-0.03125","1.6479490995407104","7.751464366912842","-3.784179449081421","111","-60","93","4"
14904,"-0.36474609375","0.8931884765625","-0.0184326171875","3.173827886581421","6.164550304412842","-4.82177734375","108","-54","83","4"
14935,"-0.3450927734375","0.8988037109375","-0.02197265625","2.13623046875","4.5166015625","-7.080077648162842","108","-54","83","4"
14966,"-0.3260498046875","0.9288330078125","-0.0228271484375","2.807616949081421","3.540038824081421","-7.446288585662842","108","-54","83","4"
14997,"-0.3143310546875","0.90869140625","-0.02734375","1.5258787870407104","5.0048828125","-5.981444835662842","109","-52","84","4"
15028,"-0.3153076171875","0.9150390625","-0.0338134765625","-1.2817381620407104","6.896972179412842","-3.906249761581421","109","-52","84","4"
15059,"-0.3270263671875","0.92333984375","-0.02734375","-1.7700194120407104","8.48388671875","-2.868652105331421","109","-52","84","4"
15094,"-0.3304443359375","0.898681640625","-0.030029296875","-2.44140625","9.521484375","-1.03759765625","109","-52","84","4"
15125,"-0.3302001953125","0.907958984375","-0.031982421875","-2.868652105331421","8.48388671875","0.4882812201976776","106","-54","89","4"
15156,"-0.324462890625","0.910400390625","-0.0267333984375","-2.990722417831421","8.60595703125","1.2817381620407104","106","-54","89","4"
15187,"-0.32275390625","0.9161376953125","-0.0244140625","-4.33349609375","10.192870140075684","1.03759765625","106","-54","89","4"
15220,"-0.3204345703125","0.9122314453125","-0.028564453125","-5.126952648162842","11.718749046325684","0.7324218153953552","105","-56","87","4"
15254,"-0.3231201171875","0.91259765625","-0.029052734375","-4.45556640625","12.451170921325684","0.30517578125","105","-56","87","4"
15285,"-0.3282470703125","0.903076171875","-0.03076171875","-4.638671875","12.390135765075684","-0.30517578125","105","-56","87","4"
15317,"-0.3258056640625","0.90576171875","-0.0343017578125","-5.249022960662842","12.878417015075684","0.1220703050494194","109","-58","90","4"
15352,"-0.3260498046875","0.9146728515625","-0.03466796875","-6.225585460662842","13.488768577575684","0","109","-58","90","4"
15387,"-0.3240966796875","0.9124755859375","-0.04443359375","-6.103515148162842","13.305663108825684","-0.1220703050494194","109","-58","90","4"
15418,"-0.3253173828125","0.90869140625","-0.0401611328125","-4.33349609375","12.207030296325684","-0.54931640625","116","-54","88","4"
15482,"-0.331787109375","0.9156494140625","-0.045166015625","-6.347655773162842","11.962889671325684","0.2441406100988388","116","-54","88","4"
15513,"-0.3369140625","0.9154052734375","-0.0421142578125","-7.080077648162842","11.474608421325684","1.2817381620407104","113","-63","92","4"
15544,"-0.3406982421875","0.89794921875","-0.042236328125","-5.432128429412842","10.192870140075684","0.7934569716453552","113","-63","92","4"
15575,"-0.3387451171875","0.9046630859375","-0.0491943359375","-4.7607421875","8.056640625","-0.6103515625","113","-63","92","4"
15609,"-0.3277587890625","0.9168701171875","-0.0531005859375","-3.540038824081421","6.225585460662842","0.1220703050494194","114","-63","87","4"
15640,"-0.3270263671875","0.9168701171875","-0.0491943359375","-3.295898199081421","6.225585460662842","0.8544921278953552","114","-63","87","4"
15674,"-0.324462890625","0.9078369140625","-0.0528564453125","-3.234863042831421","5.920409679412842","0.2441406100988388","114","-63","87","4"
15710,"-0.3304443359375","0.9046630859375","-0.049072265625","-1.6479490995407104","4.8828125","-1.7700194120407104","108","-58","87","4"
15741,"-0.3309326171875","0.89990234375","-0.059814453125","-2.624511480331421","4.2724609375","-1.4038084745407104","108","-58","87","4"
15772,"-0.3353271484375","0.9249267578125","-0.05712890625","-0.9765624403953552","3.784179449081421","0.0610351525247097","108","-58","87","4"
15807,"-0.33154296875","0.911865234375","-0.05859375","-1.03759765625","2.807616949081421","1.0986328125","112","-59","88","4"
15838,"-0.33349609375","0.9000244140625","-0.045654296875","-0.4882812201976776","2.197265625","0","112","-59","88","4"
15869,"-0.33154296875","0.9036865234375","-0.04638671875","0.0610351525247097","2.01416015625","-0.9155272841453552","112","-59","88","4"
15900,"-0.3297119140625","0.9085693359375","-0.0439453125","-1.7089842557907104","1.7700194120407104","-0.7934569716453552","112","-59","88","4"
15934,"-0.33203125","0.9078369140625","-0.04345703125","-0.3662109076976776","1.15966796875","0.4272460639476776","112","-59","89","4"
15969,"-0.3297119140625","0.913330078125","-0.0472412109375","-1.15966796875","0.54931640625","0.54931640625","112","-59","89","4"
16000,"-0.3233642578125","0.9122314453125","-0.05029296875","0.30517578125","-0.7324218153953552","-0.2441406100988388","108","-54","87","4"
16031,"-0.3287353515625","0.904052734375","-0.046630859375","0.8544921278953552","-1.15966796875","-0.4882812201976776","108","-54","87","4"
16064,"-0.3336181640625","0.9111328125","-0.04736328125","0.1220703050494194","-1.7089842557907104","-0.7934569716453552","108","-54","87","4"
16095,"-0.330810546875","0.9151611328125","-0.0517578125","0.1831054538488388","-1.8310545682907104","-0.4882812201976776","108","-54","87","4"
16126,"-0.324951171875","0.9039306640625","-0.0491943359375","0.9765624403953552","-2.197265625","0.2441406100988388","110","-57","91","4"
16157,"-0.330810546875","0.9085693359375","-0.0439453125","0.30517578125","-2.25830078125","0.6713866591453552","110","-57","91","4"
16188,"-0.3260498046875","0.91064453125","-0.049072265625","-0.1220703050494194","-2.624511480331421","0.6103515625","110","-57","91","4"
16219,"-0.3260498046875","0.9169921875","-0.05224609375","0.7324218153953552","-2.624511480331421","0.30517578125","112","-56","89","4"
16254,"-0.3262939453125","0.9097900390625","-0.045166015625","1.220703125","-2.990722417831421","0.1831054538488388","112","-56","89","4"
16285,"-0.32958984375","0.906982421875","-0.0406494140625","1.5258787870407104","-2.929687261581421","0.7934569716453552","112","-56","89","4"
16316,"-0.3328857421875","0.90625","-0.0439453125","0.30517578125","-3.295898199081421","0.9765624403953552","111","-58","93","4"
16347,"-0.329833984375","0.9105224609375","-0.0408935546875","1.4038084745407104","-3.295898199081421","0.9155272841453552","111","-58","93","4"
16381,"-0.32763671875","0.911865234375","-0.0452880859375","0.54931640625","-3.173827886581421","0.6103515625","111","-58","93","4"
16412,"-0.328369140625","0.906005859375","-0.0450439453125","0.7934569716453552","-2.868652105331421","0.30517578125","109","-59","90","4"
16448,"-0.3304443359375","0.9124755859375","-0.0447998046875","0.6103515625","-2.746581792831421","0.0610351525247097","109","-59","90","4"
16484,"-0.3306884765625","0.9102783203125","-0.043212890625","0.4882812201976776","-2.3193359375","0.2441406100988388","109","-59","90","4"
16517,"-0.327880859375","0.908935546875","-0.042724609375","0","-2.13623046875","0.30517578125","109","-55","89","4"
16553,"-0.326416015625","0.9112548828125","-0.04150390625","0.0610351525247097","-1.5869139432907104","0.6713866591453552","109","-55","89","4"
16584,"-0.326904296875","0.908203125","-0.043701171875","0.1220703050494194","-1.15966796875","0.2441406100988388","109","-55","89","4"
16615,"-0.3310546875","0.910888671875","-0.0439453125","0.30517578125","-0.7934569716453552","-0.4272460639476776","110","-58","86","4"
16649,"-0.3331298828125","0.9107666015625","-0.0479736328125","-0.4272460639476776","-0.9155272841453552","-0.1220703050494194","110","-58","86","4"
16680,"-0.332275390625","0.9097900390625","-0.0484619140625","0.4882812201976776","-0.7934569716453552","0.1831054538488388","110","-58","86","4"
16711,"-0.3272705078125","0.9071044921875","-0.0469970703125","0.1831054538488388","-0.6713866591453552","0.1220703050494194","112","-55","87","4"
16747,"-0.3306884765625","0.9085693359375","-0.045654296875","0","-0.6103515625","-0.1220703050494194","112","-55","87","4"
16778,"-0.328369140625","0.9144287109375","-0.0472412109375","0.1220703050494194","-0.6103515625","-0.0610351525247097","112","-55","87","4"
16809,"-0.32763671875","0.90625","-0.04443359375","0.4272460639476776","-0.4272460639476776","-0.0610351525247097","108","-60","91","4"
16840,"-0.3294677734375","0.909423828125","-0.044921875","-0.4272460639476776","-0.4272460639476776","-0.3662109076976776","108","-60","91","4"
16871,"-0.329345703125","0.909912109375","-0.0460205078125","0.7324218153953552","-0.54931640625","-0.54931640625","108","-60","91","4"
16902,"-0.328857421875","0.9088134765625","-0.0479736328125","0.4882812201976776","-0.54931640625","-0.4882812201976776","108","-60","91","4"
16935,"-0.3284912109375","0.9051513671875","-0.0472412109375","0.6103515625","-0.4272460639476776","-0.54931640625","111","-59","87","4"
16971,"-0.3310546875","0.9158935546875","-0.04736328125","0.2441406100988388","-0.3662109076976776","-0.3662109076976776","111","-59","87","4"
17005,"-0.3289794921875","0.90283203125","-0.04931640625","-0.0610351525247097","-0.4882812201976776","0.0610351525247097","106","-56","91","4"
17037,"-0.3323974609375","0.909912109375","-0.0477294921875","-0.1831054538488388","-0.6103515625","-0.0610351525247097","106","-56","91","4"
17072,"-0.328857421875","0.9090576171875","-0.0477294921875","-0.3662109076976776","-0.8544921278953552","0","106","-56","91","4"
17103,"-0.33154296875","0.91552734375","-0.045654296875","0.54931640625","-0.7324218153953552","-0.1220703050494194","106","-56","91","4"
17136,"-0.3306884765625","0.9031982421875","-0.049072265625","-0.30517578125","-0.8544921278953552","-0.4272460639476776","111","-53","88","4"
17167,"-0.330078125","0.9132080078125","-0.046630859375","0.2441406100988388","-0.9765624403953552","-0.1220703050494194","111","-53","88","4"
17199,"-0.32275390625","0.9051513671875","-0.0499267578125","-0.4272460639476776","-0.9765624403953552","0.4272460639476776","109","-58","86","4"
17233,"-0.329833984375","0.9205322265625","-0.0450439453125","0.54931640625","-0.54931640625","0.6713866591453552","109","-58","86","4"
17264,"-0.3267822265625","0.9007568359375","-0.0484619140625","-0.7324218153953552","-0.30517578125","-0.30517578125","109","-58","86","4"
17296,"-0.3316650390625","0.9119873046875","-0.0501708984375","0.7934569716453552","-0.30517578125","-0.6103515625","109","-58","86","4"
17330,"-0.332275390625","0.9107666015625","-0.04638671875","-0.4882812201976776","-0.4882812201976776","-0.2441406100988388","110","-53","90","4"
17366,"-0.327880859375","0.9100341796875","-0.0511474609375","-0.0610351525247097","-0.54931640625","0","110","-53","90","4"
17400,"-0.328369140625","0.9068603515625","-0.0482177734375","0.6103515625","-0.6713866591453552","-0.1831054538488388","109","-56","92","4"
17431,"-0.3282470703125","0.9122314453125","-0.0484619140625","0.1831054538488388","-0.6713866591453552","0","109","-56","92","4"
17465,"-0.3258056640625","0.9100341796875","-0.051025390625","0.54931640625","-0.7324218153953552","0.30517578125","109","-56","92","4"
17496,"-0.3271484375","0.9078369140625","-0.0457763671875","0.4272460639476776","-0.7324218153953552","-0.0610351525247097","109","-56","92","4"
17527,"-0.328369140625","0.909912109375","-0.0499267578125","-0.0610351525247097","-0.6713866591453552","-0.2441406100988388","110","-57","94","4"
17558,"-0.3304443359375","0.9107666015625","-0.0482177734375","0.7934569716453552","-0.7324218153953552","0.0610351525247097","110","-57","94","4"
17589,"-0.3326416015625","0.9063720703125","-0.0450439453125","0","-0.6713866591453552","-0.0610351525247097","110","-57","94","4"
17621,"-0.330078125","0.9091796875","-0.0518798828125","0","-0.8544921278953552","0.30517578125","110","-52","91","4"
17656,"-0.3341064453125","0.9130859375","-0.0460205078125","0.54931640625","-0.9155272841453552","0.4272460639476776","110","-52","91","4"
17690,"-0.32763671875","0.9033203125","-0.0521240234375","-0.30517578125","-1.15966796875","-0.0610351525247097","110","-52","91","4"
17721,"-0.3289794921875","0.91162109375","-0.0501708984375","0.6103515625","-1.220703125","-0.1831054538488388","111","-56","89","4"
17752,"-0.330078125","0.9090576171875","-0.05078125","0.1220703050494194","-1.2817381620407104","-0.1220703050494194","111","-56","89","4"
17787,"-0.328369140625","0.9085693359375","-0.051025390625","0.6713866591453552","-1.7700194120407104","0.1831054538488388","111","-56","89","4"
17818,"-0.3311767578125","0.9075927734375","-0.050048828125","0.9765624403953552","-2.01416015625","-0.2441406100988388","114","-58","91","4"
17853,"-0.33203125","0.9111328125","-0.0498046875","0.30517578125","-2.0751953125","-0.0610351525247097","114","-58","91","4"
17884,"-0.32958984375","0.9093017578125","-0.0498046875","0.8544921278953552","-2.197265625","-0.0610351525247097","114","-58","91","4"
17919,"-0.32666015625","0.90234375","-0.05029296875","1.220703125","-2.197265625","-0.54931640625","118","-50","95","4"
17950,"-0.3289794921875","0.910400390625","-0.05029296875","-0.0610351525247097","-2.197265625","-0.4882812201976776","118","-50","95","4"
17981,"-0.3250732421875","0.91064453125","-0.0528564453125","0.6713866591453552","-2.0751953125","-0.0610351525247097","118","-50","95","4"
18012,"-0.3262939453125","0.92138671875","-0.0506591796875","-0.0610351525247097","-2.3193359375","1.03759765625","109","-48","83","4"
18043,"-0.3284912109375","0.907470703125","-0.0455322265625","0.7324218153953552","-2.563476324081421","0.9155272841453552","109","-48","83","4"
18074,"-0.3277587890625","0.897216796875","-0.0419921875","1.7089842557907104","-2.563476324081421","-0.6713866591453552","109","-48","83","4"
18109,"-0.33056640625","0.904541015625","-0.048828125","0.6713866591453552","-2.197265625","-1.7089842557907104","109","-60","86","4"
18144,"-0.3291015625","0.9193115234375","-0.0576171875","1.6479490995407104","-2.746581792831421","-1.4038084745407104","109","-60","86","4"
18180,"-0.3251953125","0.90673828125","-0.05712890625","2.197265625","-2.25830078125","-1.3427733182907104","109","-60","86","4"
18215,"-0.3309326171875","0.9100341796875","-0.053955078125","0.3662109076976776","-1.9531248807907104","-0.4882812201976776","111","-56","91","4"
18246,"-0.3284912109375","0.9185791015625","-0.05419921875","2.0751953125","-2.25830078125","0.1220703050494194","111","-56","91","4"
18277,"-0.32275390625","0.901123046875","-0.04931640625","2.563476324081421","-2.746581792831421","0.4882812201976776","111","-56","91","4"
18310,"-0.32763671875","0.926025390625","-0.0406494140625","1.4038084745407104","-2.563476324081421","0.8544921278953552","110","-57","85","4"
18341,"-0.3228759765625","0.9061279296875","-0.0418701171875","1.6479490995407104","-2.746581792831421","0.30517578125","110","-57","85","4"
18372,"-0.3201904296875","0.9010009765625","-0.035400390625","2.38037109375","-2.563476324081421","-0.2441406100988388","110","-57","85","4"
18403,"-0.326171875","0.916015625","-0.0382080078125","-1.0986328125","-1.220703125","0.2441406100988388","111","-57","94","4"
18434,"-0.3275146484375","0.91162109375","-0.046142578125","-0.1831054538488388","-1.0986328125","0.0610351525247097","111","-57","94","4"
18465,"-0.322998046875","0.905517578125","-0.0543212890625","0.6103515625","-2.13623046875","-0.1831054538488388","111","-57","94","4"
18496,"-0.3240966796875","0.913818359375","-0.046630859375","0.4272460639476776","-1.7089842557907104","0.1220703050494194","111","-57","94","4"
18527,"-0.3282470703125","0.916259765625","-0.049560546875","-0.1220703050494194","-1.4038084745407104","0.2441406100988388","109","-54","87","4"
18558,"-0.32421875","0.9049072265625","-0.0552978515625","0.6713866591453552","-1.5869139432907104","-0.3662109076976776","109","-54","87","4"
18591,"-0.329345703125","0.9083251953125","-0.0506591796875","0.4272460639476776","-1.5258787870407104","0.0610351525247097","109","-54","87","4"
18622,"-0.3271484375","0.913818359375","-0.0474853515625","0.30517578125","-1.220703125","0.6103515625","109","-55","90","4"
18653,"-0.326416015625","0.9095458984375","-0.044189453125","1.03759765625","-1.4648436307907104","0.3662109076976776","109","-55","90","4"
18684,"-0.3271484375","0.912841796875","-0.045654296875","-0.2441406100988388","-1.220703125","0","109","-55","90","4"
18715,"-0.3251953125","0.9107666015625","-0.0386962890625","0.8544921278953552","-1.0986328125","-0.8544921278953552","105","-54","91","4"
18746,"-0.325927734375","0.9012451171875","-0.042236328125","0.4882812201976776","-1.4648436307907104","-1.220703125","105","-54","91","4"
18781,"-0.3270263671875","0.916259765625","-0.046875","1.220703125","-2.01416015625","-0.9155272841453552","105","-54","91","4"
18815,"-0.323486328125","0.9093017578125","-0.047607421875","0.6103515625","-1.6479490995407104","-0.54931640625","108","-51","86","4"
18846,"-0.3243408203125","0.908203125","-0.047119140625","0.7934569716453552","-1.4648436307907104","-0.1831054538488388","108","-51","86","4"
18877,"-0.3221435546875","0.91552734375","-0.0489501953125","-0.30517578125","-1.03759765625","-0.30517578125","108","-51","86","4"
18908,"-0.32373046875","0.906494140625","-0.0455322265625","-0.4882812201976776","-0.1220703050494194","-0.6713866591453552","111","-56","91","4"
18940,"-0.3216552734375","0.9129638671875","-0.05029296875","-1.0986328125","0","-0.1220703050494194","111","-56","91","4"
18971,"-0.321044921875","0.910400390625","-0.0438232421875","0.30517578125","-0.0610351525247097","-0.0610351525247097","111","-56","91","4"
19006,"-0.32177734375","0.912841796875","-0.0482177734375","-0.6103515625","0","-0.4882812201976776","108","-57","87","4"
19042,"-0.32373046875","0.9117431640625","-0.045166015625","0.2441406100988388","0.1220703050494194","-0.1831054538488388","108","-57","87","4"
19077,"-0.3245849609375","0.91748046875","-0.055908203125","-0.1831054538488388","0.1831054538488388","0.6103515625","108","-57","87","4"
19108,"-0.326171875","0.90185546875","-0.048583984375","-0.4272460639476776","-0.3662109076976776","1.220703125","108","-54","91","4"
19139,"-0.33154296875","0.9149169921875","-0.044677734375","0.2441406100988388","-0.6713866591453552","0.54931640625","108","-54","91","4"
19173,"-0.3236083984375","0.9132080078125","-0.0526123046875","-0.30517578125","-0.9155272841453552","-0.6103515625","108","-54","91","4"
19204,"-0.3201904296875","0.9073486328125","-0.0477294921875","0.0610351525247097","-0.6103515625","-0.4882812201976776","111","-52","91","4"
19238,"-0.3218994140625","0.912841796875","-0.0526123046875","0","-0.54931640625","-0.0610351525247097","111","-52","91","4"
19269,"-0.3212890625","0.9119873046875","-0.052978515625","-0.3662109076976776","-0.4272460639476776","-0.1220703050494194","111","-52","91","4"
19305,"-0.3209228515625","0.91015625","-0.05029296875","1.0986328125","-0.0610351525247097","-0.6103515625","111","-49","89","4"
19336,"-0.3221435546875","0.9068603515625","-0.049560546875","0.6713866591453552","0.0610351525247097","-0.6713866591453552","111","-49","89","4"
19400,"-0.32568359375","0.91748046875","-0.0482177734375","0.7934569716453552","0.6103515625","-0.1220703050494194","111","-49","89","4"
19431,"-0.3216552734375","0.90478515625","-0.0504150390625","0.3662109076976776","0.4272460639476776","-0.2441406100988388","110","-55","89","4"
19462,"-0.3221435546875","0.90576171875","-0.04296875","-0.0610351525247097","0.7324218153953552","-0.4272460639476776","110","-55","89","4"
19494,"-0.3243408203125","0.9163818359375","-0.0421142578125","-0.6713866591453552","0.7934569716453552","-0.9155272841453552","110","-55","89","4"
19530,"-0.32568359375","0.9249267578125","-0.044189453125","0.54931640625","0.1220703050494194","-1.2817381620407104","111","-53","93","4"
19564,"-0.3193359375","0.90673828125","-0.045166015625","0.9765624403953552","0.0610351525247097","-1.220703125","111","-53","93","4"
19595,"-0.3204345703125","0.9078369140625","-0.0462646484375","0","0.1831054538488388","-0.6713866591453552","111","-53","93","4"
19626,"-0.3240966796875","0.9124755859375","-0.046630859375","-0.54931640625","0.1831054538488388","-0.54931640625","107","-53","88","4"
19657,"-0.322265625","0.9161376953125","-0.0555419921875","0.1220703050494194","0","-0.4272460639476776","107","-53","88","4"
19688,"-0.3212890625","0.90673828125","-0.050048828125","0.30517578125","0.1220703050494194","-0.54931640625","107","-53","88","4"
19719,"-0.3233642578125","0.9140625","-0.0526123046875","-0.54931640625","0.3662109076976776","0.0610351525247097","110","-54","91","4"
19750,"-0.3194580078125","0.911865234375","-0.0462646484375","0.1831054538488388","0.2441406100988388","0.4272460639476776","110","-54","91","4"
19781,"-0.320556640625","0.915771484375","-0.0469970703125","-0.54931640625","0.1220703050494194","0.2441406100988388","110","-54","91","4"
19812,"-0.312255859375","0.9114990234375","-0.0513916015625","0.54931640625","-0.3662109076976776","0.2441406100988388","110","-57","87","4"
19846,"-0.3182373046875","0.9132080078125","-0.0450439453125","0.7934569716453552","0.0610351525247097","0.0610351525247097","110","-57","87","4"
19944,"-0.3226318359375","0.913330078125","-0.0516357421875","-0.1220703050494194","0.4882812201976776","0.3662109076976776","112","-53","90","4"
19975,"-0.32177734375","0.913330078125","-0.04833984375","-0.2441406100988388","0.54931640625","0.3662109076976776","112","-53","90","4"
20009,"-0.322998046875","0.916259765625","-0.047607421875","-0.1831054538488388","0.4272460639476776","0.0610351525247097","112","-53","88","4"
20041,"-0.320556640625","0.9090576171875","-0.0487060546875","0.0610351525247097","0.2441406100988388","0","112","-53","88","4"
20072,"-0.3182373046875","0.9111328125","-0.0509033203125","-0.0610351525247097","0.1220703050494194","0.2441406100988388","112","-53","88","4"
20104,"-0.3206787109375","0.911865234375","-0.0482177734375","0.1220703050494194","0.30517578125","0.30517578125","107","-58","92","4"
20139,"-0.322998046875","0.9150390625","-0.048583984375","-0.6103515625","0.54931640625","0.30517578125","107","-58","92","4"
20173,"-0.3187255859375","0.90966796875","-0.049560546875","0.6103515625","0.30517578125","0.3662109076976776","107","-58","92","4"
20205,"-0.32177734375","0.9136962890625","-0.0450439453125","-0.6713866591453552","0.54931640625","0.4882812201976776","110","-56","90","4"
20241,"-0.3233642578125","0.91552734375","-0.0511474609375","-1.220703125","0.3662109076976776","-0.54931640625","110","-56","90","4"
20272,"-0.323974609375","0.9144287109375","-0.0521240234375","1.15966796875","-0.1220703050494194","-0.4272460639476776","110","-56","90","4"
20303,"-0.3125","0.904296875","-0.0513916015625","-0.2441406100988388","0.1220703050494194","-0.2441406100988388","107","-56","87","4"
20334,"-0.3204345703125","0.913330078125","-0.0452880859375","-0.3662109076976776","0.6103515625","-1.0986328125","107","-56","87","4"
20366,"-0.315673828125","0.9129638671875","-0.0482177734375","-0.54931640625","0.7324218153953552","-1.8310545682907104","107","-56","87","4"
20401,"-0.3232421875","0.91015625","-0.049560546875","-0.4882812201976776","1.03759765625","-1.4648436307907104","110","-57","89","4"
20437,"-0.3255615234375","0.917724609375","-0.0546875","-0.4882812201976776","0.9155272841453552","0.1831054538488388","110","-57","89","4"
20468,"-0.322509765625","0.916748046875","-0.048583984375","-0.30517578125","0.2441406100988388","0.3662109076976776","110","-57","89","4"
20499,"-0.3280029296875","0.9140625","-0.043701171875","0.54931640625","-0.3662109076976776","0.0610351525247097","110","-57","89","4"
20534,"-0.3206787109375","0.910888671875","-0.0450439453125","0.1220703050494194","-1.0986328125","0.30517578125","107","-55","86","4"
20570,"-0.31591796875","0.9071044921875","-0.0435791015625","0.3662109076976776","-0.7934569716453552","0.1220703050494194","107","-55","86","4"
20606,"-0.311767578125","0.9136962890625","-0.0430908203125","-0.4882812201976776","0.0610351525247097","0.30517578125","105","-52","86","4"
20637,"-0.307861328125","0.9134521484375","-0.04833984375","-1.7089842557907104","0.54931640625","0.6713866591453552","105","-52","86","4"
20672,"-0.309814453125","0.91845703125","-0.0518798828125","-1.2817381620407104","1.2817381620407104","1.3427733182907104","105","-52","86","4"
20703,"-0.3165283203125","0.9097900390625","-0.05322265625","-1.5869139432907104","2.25830078125","1.03759765625","105","-52","86","4"
20734,"-0.322265625","0.9144287109375","-0.0548095703125","-0.9155272841453552","2.3193359375","1.3427733182907104","109","-55","94","4"
20770,"-0.3267822265625","0.912109375","-0.052001953125","-0.4882812201976776","2.25830078125","1.6479490995407104","109","-55","94","4"
20802,"-0.3289794921875","0.9095458984375","-0.0501708984375","-1.3427733182907104","2.624511480331421","0.8544921278953552","109","-51","92","4"
20833,"-0.3272705078125","0.912109375","-0.05322265625","-1.0986328125","2.868652105331421","0.2441406100988388","109","-51","92","4"
20864,"-0.329345703125","0.9111328125","-0.0482177734375","-0.9765624403953552","2.50244140625","0.2441406100988388","109","-51","92","4"
20897,"-0.3223876953125","0.90771484375","-0.0491943359375","-1.2817381620407104","2.25830078125","-0.7324218153953552","109","-51","92","4"
20928,"-0.3250732421875","0.916259765625","-0.0550537109375","-1.220703125","1.7700194120407104","-1.03759765625","111","-51","87","4"
20959,"-0.3211669921875","0.9141845703125","-0.0509033203125","-0.6103515625","1.5258787870407104","-0.4272460639476776","111","-51","87","4"
20990,"-0.316162109375","0.91162109375","-0.0496826171875","-1.220703125","2.3193359375","-0.1220703050494194","111","-51","87","4"
21022,"-0.3194580078125","0.898193359375","-0.0479736328125","-2.01416015625","2.746581792831421","-0.1831054538488388","110","-55","94","4"
21058,"-0.3240966796875","0.9202880859375","-0.0540771484375","-1.5258787870407104","2.50244140625","-0.4272460639476776","110","-55","94","4"
21089,"-0.3248291015625","0.9073486328125","-0.0587158203125","-2.44140625","2.44140625","-0.1220703050494194","110","-55","94","4"
21120,"-0.3248291015625","0.9150390625","-0.0611572265625","-1.4648436307907104","2.13623046875","0.30517578125","107","-56","92","4"
21151,"-0.322265625","0.9068603515625","-0.0570068359375","-0.8544921278953552","1.5869139432907104","0.3662109076976776","107","-56","92","4"
21182,"-0.3251953125","0.90771484375","-0.05224609375","-0.9155272841453552","1.4648436307907104","0.1220703050494194","107","-56","92","4"
21244,"-0.321533203125","0.911865234375","-0.0587158203125","0.4272460639476776","1.03759765625","0.1220703050494194","111","-55","89","4"
21275,"-0.322265625","0.902099609375","-0.0565185546875","-1.0986328125","0.7934569716453552","-0.1831054538488388","111","-55","89","4"
21306,"-0.324462890625","0.9163818359375","-0.0552978515625","-0.4882812201976776","0.30517578125","-0.30517578125","107","-56","87","4"
21337,"-0.325927734375","0.914306640625","-0.05712890625","-0.2441406100988388","-0.0610351525247097","-0.0610351525247097","107","-56","87","4"
21370,"-0.326171875","0.91064453125","-0.0556640625","-0.2441406100988388","-0.1831054538488388","0","107","-56","87","4"
21401,"-0.323486328125","0.9066162109375","-0.055419921875","0.0610351525247097","-0.1220703050494194","0.0610351525247097","107","-56","87","4"
21433,"-0.32373046875","0.9127197265625","-0.054931640625","-0.6103515625","-0.30517578125","0","108","-53","88","4"
21469,"-0.322021484375","0.9168701171875","-0.0596923828125","-0.30517578125","-0.4882812201976776","-0.0610351525247097","108","-53","88","4"
21500,"-0.3214111328125","0.908935546875","-0.057861328125","0.7934569716453552","-0.4272460639476776","-0.1831054538488388","108","-53","88","4"
21534,"-0.321533203125","0.905029296875","-0.0550537109375","0.2441406100988388","0","0","108","-58","88","4"
21569,"-0.32666015625","0.9168701171875","-0.0572509765625","-0.7934569716453552","-0.1220703050494194","0.1220703050494194","108","-58","88","4"
21602,"-0.319580078125","0.9102783203125","-0.0562744140625","0.54931640625","0.1220703050494194","0.3662109076976776","108","-58","88","4"
21633,"-0.3193359375","0.9129638671875","-0.0584716796875","-0.0610351525247097","0.3662109076976776","0.7324218153953552","113","-51","86","4"
21664,"-0.322265625","0.907470703125","-0.051513671875","-0.1831054538488388","0.4272460639476776","0.4882812201976776","113","-51","86","4"
21695,"-0.3265380859375","0.916259765625","-0.055419921875","-0.9155272841453552","0.30517578125","-0.0610351525247097","113","-51","86","4"
21726,"-0.3253173828125","0.910400390625","-0.0574951171875","0.2441406100988388","0.0610351525247097","-0.3662109076976776","107","-54","89","4"
21761,"-0.3231201171875","0.906005859375","-0.0574951171875","-0.2441406100988388","0.0610351525247097","0.1831054538488388","107","-54","89","4"
21792,"-0.3236083984375","0.9124755859375","-0.0576171875","-0.3662109076976776","0.1220703050494194","0.0610351525247097","107","-54","89","4"
21824,"-0.3265380859375","0.9154052734375","-0.0576171875","-0.4882812201976776","0.0610351525247097","-0.1831054538488388","110","-59","90","4"
21855,"-0.3223876953125","0.9132080078125","-0.0606689453125","-0.1220703050494194","-0.30517578125","-0.0610351525247097","110","-59","90","4"
21886,"-0.321044921875","0.906005859375","-0.056884765625","0.7324218153953552","-0.2441406100988388","0","110","-59","90","4"
21919,"-0.32275390625","0.9158935546875","-0.0572509765625","-0.1831054538488388","0.0610351525247097","-0.30517578125","109","-51","88","4"
21950,"-0.3204345703125","0.90966796875","-0.0596923828125","-0.1831054538488388","-0.0610351525247097","-0.1831054538488388","109","-51","88","4"
21981,"-0.3248291015625","0.9114990234375","-0.0584716796875","0.6713866591453552","0.0610351525247097","0","109","-51","88","4"
22012,"-0.32568359375","0.9102783203125","-0.0562744140625","-0.0610351525247097","0.0610351525247097","0.2441406100988388","110","-56","86","4"
22043,"-0.3258056640625","0.9156494140625","-0.0574951171875","0.1220703050494194","0","0.4272460639476776","110","-56","86","4"
22075,"-0.322265625","0.90478515625","-0.056884765625","0.3662109076976776","0.0610351525247097","0.1220703050494194","110","-56","86","4"
22106,"-0.32421875","0.9127197265625","-0.0552978515625","0.3662109076976776","0","0","109","-54","91","4"
22137,"-0.3218994140625","0.9078369140625","-0.053955078125","-0.2441406100988388","0.1831054538488388","-0.3662109076976776","109","-54","91","4"
22168,"-0.3251953125","0.912353515625","-0.057861328125","-0.7934569716453552","-0.1220703050494194","-0.1831054538488388","109","-54","91","4"
22201,"-0.32373046875","0.9146728515625","-0.05908203125","0.7934569716453552","-0.0610351525247097","0.1220703050494194","109","-53","88","4"
22232,"-0.31884765625","0.9122314453125","-0.059326171875","-0.1220703050494194","0.1831054538488388","0.4882812201976776","109","-53","88","4"
22266,"-0.32373046875","0.90673828125","-0.05419921875","-0.7934569716453552","0.30517578125","-0.3662109076976776","109","-53","88","4"
22297,"-0.3255615234375","0.9166259765625","-0.0579833984375","-0.1220703050494194","0.1831054538488388","-0.3662109076976776","109","-53","88","4"
22328,"-0.3267822265625","0.9056396484375","-0.057373046875","0.3662109076976776","0.30517578125","-0.1220703050494194","105","-56","90","4"
22364,"-0.325927734375","0.9141845703125","-0.0595703125","-0.30517578125","0.1220703050494194","0.4272460639476776","105","-56","90","4"
22395,"-0.32275390625","0.9075927734375","-0.0565185546875","0.30517578125","-0.1831054538488388","-0.0610351525247097","105","-56","90","4"
22426,"-0.3238525390625","0.9100341796875","-0.0546875","0.1220703050494194","-0.1831054538488388","-0.3662109076976776","108","-52","94","4"
22460,"-0.31884765625","0.9161376953125","-0.0616455078125","0","-0.1831054538488388","0.30517578125","108","-52","94","4"
22491,"-0.32177734375","0.9085693359375","-0.0565185546875","0.54931640625","0","0.1831054538488388","108","-52","94","4"
22522,"-0.3238525390625","0.91357421875","-0.05712890625","-0.0610351525247097","0.1220703050494194","-0.0610351525247097","115","-56","92","4"
22557,"-0.323486328125","0.9073486328125","-0.056640625","0.0610351525247097","0.0610351525247097","0.0610351525247097","115","-56","92","4"
22590,"-0.3251953125","0.90771484375","-0.055908203125","-0.4272460639476776","0.2441406100988388","0.3662109076976776","115","-56","92","4"
22621,"-0.324951171875","0.9146728515625","-0.0572509765625","-0.30517578125","0.30517578125","0.30517578125","109","-60","91","4"
22652,"-0.3243408203125","0.9122314453125","-0.0572509765625","0","0.3662109076976776","0.1220703050494194","109","-60","91","4"
22683,"-0.322021484375","0.90625","-0.0596923828125","-0.4882812201976776","0.1220703050494194","0.1831054538488388","109","-60","91","4"
22714,"-0.3243408203125","0.9112548828125","-0.0560302734375","0.4272460639476776","0.2441406100988388","0.1220703050494194","114","-65","88","4"
22745,"-0.326171875","0.912841796875","-0.0584716796875","-0.9765624403953552","0.3662109076976776","-0.1831054538488388","114","-65","88","4"
22776,"-0.329345703125","0.9227294921875","-0.0596923828125","0.4882812201976776","-0.30517578125","0.1220703050494194","114","-65","88","4"
22807,"-0.32177734375","0.903564453125","-0.060546875","0.8544921278953552","-0.2441406100988388","0.3662109076976776","110","-64","89","4"
22838,"-0.32275390625","0.9052734375","-0.0545654296875","0.4882812201976776","0.1220703050494194","0.2441406100988388","110","-64","89","4"
22869,"-0.326171875","0.918212890625","-0.05517578125","-0.4882812201976776","0.0610351525247097","-0.1220703050494194","110","-64","89","4"
22901,"-0.3265380859375","0.912353515625","-0.0560302734375","0.3662109076976776","0","-0.3662109076976776","107","-51","90","4"
22963,"-0.3192138671875","0.9036865234375","-0.0565185546875","0.30517578125","-0.0610351525247097","-0.1220703050494194","107","-51","90","4"
22994,"-0.325439453125","0.91162109375","-0.0555419921875","-0.3662109076976776","0.0610351525247097","-0.30517578125","107","-51","90","4"
23025,"-0.322021484375","0.9097900390625","-0.058837890625","-0.6713866591453552","0.1831054538488388","0","109","-55","89","4"
23061,"-0.322021484375","0.917236328125","-0.0615234375","0.54931640625","0.0610351525247097","0.4882812201976776","109","-55","89","4"
23092,"-0.323974609375","0.908447265625","-0.0555419921875","-0.1831054538488388","0.30517578125","0","109","-55","89","4"
23123,"-0.3240966796875","0.910888671875","-0.0550537109375","-0.1831054538488388","0.1831054538488388","-0.1831054538488388","108","-55","89","4"
23154,"-0.32568359375","0.907470703125","-0.0545654296875","-0.1220703050494194","0.0610351525247097","0","108","-55","89","4"
23185,"-0.3255615234375","0.9117431640625","-0.0601806640625","-0.54931640625","0.1220703050494194","0.2441406100988388","108","-55","89","4"
23219,"-0.3262939453125","0.91015625","-0.05615234375","0.6713866591453552","0.2441406100988388","-0.1220703050494194","109","-54","89","4"
23250,"-0.32666015625","0.908447265625","-0.0579833984375","-0.3662109076976776","0.1831054538488388","-0.1831054538488388","109","-54","89","4"
23281,"-0.3243408203125","0.9117431640625","-0.061767578125","-0.0610351525247097","0","0","109","-54","89","4"
23313,"-0.3236083984375","0.912841796875","-0.0576171875","0.2441406100988388","-0.0610351525247097","0","109","-56","91","4"
23349,"-0.325439453125","0.9058837890625","-0.056396484375","-0.1220703050494194","0.1220703050494194","-0.54931640625","109","-56","91","4"
23380,"-0.3253173828125","0.914794921875","-0.05859375","-0.1831054538488388","0","0","109","-56","91","4"
23415,"-0.31982421875","0.9117431640625","-0.0595703125","0.30517578125","0.30517578125","0.0610351525247097","114","-59","87","4"
23451,"-0.3231201171875","0.90869140625","-0.0552978515625","0.2441406100988388","0.1220703050494194","-0.3662109076976776","114","-59","87","4"
23482,"-0.325927734375","0.913330078125","-0.0565185546875","-0.0610351525247097","0.0610351525247097","-0.4882812201976776","114","-59","87","4"
23513,"-0.3262939453125","0.9053955078125","-0.057861328125","0.6103515625","0.0610351525247097","-0.6103515625","124","-63","86","4"
23544,"-0.3270263671875","0.9136962890625","-0.05859375","-0.4272460639476776","0.0610351525247097","0","124","-63","86","4"
23576,"-0.322509765625","0.908447265625","-0.0567626953125","0.54931640625","-0.0610351525247097","0","124","-63","86","4"
23609,"-0.3240966796875","0.9085693359375","-0.0557861328125","-0.2441406100988388","0","-0.1831054538488388","116","-65","90","4"
23642,"-0.321044921875","0.917724609375","-0.0606689453125","-0.1831054538488388","0.0610351525247097","-0.2441406100988388","116","-65","90","4"
23678,"-0.32275390625","0.9136962890625","-0.0587158203125","1.2817381620407104","0.0610351525247097","0.1220703050494194","116","-65","90","4"
23709,"-0.3236083984375","0.9090576171875","-0.05419921875","-0.4882812201976776","0.1220703050494194","0.0610351525247097","114","-64","87","4"
23740,"-0.3231201171875","0.9073486328125","-0.0540771484375","0","-0.0610351525247097","0","114","-64","87","4"
23775,"-0.3243408203125","0.910400390625","-0.057861328125","0.1831054538488388","0","0.1831054538488388","114","-64","87","4"
23807,"-0.3250732421875","0.9132080078125","-0.0577392578125","-0.2441406100988388","0.30517578125","0","107","-51","88","4"
23838,"-0.3233642578125","0.909912109375","-0.0576171875","-0.54931640625","0.1831054538488388","0.0610351525247097","107","-51","88","4"
23869,"-0.3243408203125","0.9097900390625","-0.0576171875","0.30517578125","-0.1220703050494194","0.30517578125","107","-51","88","4"
23900,"-0.32470703125","0.9110107421875","-0.059326171875","-0.1220703050494194","-0.1220703050494194","0.1831054538488388","107","-51","88","4"
23932,"-0.3218994140625","0.9136962890625","-0.0584716796875","0.1831054538488388","0","0.1220703050494194","110","-57","84","4"
23966,"-0.3260498046875","0.9110107421875","-0.052978515625","0","0.1831054538488388","0.1831054538488388","110","-57","84","4"
24001,"-0.3226318359375","0.906982421875","-0.0579833984375","-0.1220703050494194","0.2441406100988388","-0.1220703050494194","110","-57","84","4"
24033,"-0.3289794921875","0.91943359375","-0.055908203125","0","-0.0610351525247097","0.2441406100988388","107","-55","90","4"
24064,"-0.319091796875","0.91015625","-0.0589599609375","0.1831054538488388","0","0.1831054538488388","107","-55","90","4"
24095,"-0.324462890625","0.9073486328125","-0.052734375","0.4272460639476776","0.2441406100988388","0.1220703050494194","107","-55","90","4"
24126,"-0.32470703125","0.9049072265625","-0.053466796875","-0.4882812201976776","0.1220703050494194","-0.1831054538488388","109","-51","86","4"
24157,"-0.3271484375","0.91357421875","-0.0594482421875","0.6713866591453552","0","-0.4882812201976776","109","-51","86","4"
24188,"-0.3272705078125","0.910400390625","-0.0574951171875","-0.2441406100988388","0.2441406100988388","0.1831054538488388","109","-51","86","4"
24220,"-0.322509765625","0.9110107421875","-0.0576171875","0.0610351525247097","0.1831054538488388","0.3662109076976776","107","-56","90","4"
24254,"-0.3243408203125","0.9085693359375","-0.0552978515625","0","0.1220703050494194","-0.1220703050494194","107","-56","90","4"
24285,"-0.322998046875","0.9119873046875","-0.0574951171875","-0.6103515625","0","-0.0610351525247097","107","-56","90","4"
24316,"-0.3209228515625","0.9161376953125","-0.05908203125","0.4272460639476776","-0.1220703050494194","0.1831054538488388","109","-55","85","4"
24380,"-0.323974609375","0.9168701171875","-0.055908203125","-0.4882812201976776","0.1831054538488388","-0.0610351525247097","109","-55","85","4"
24447,"-0.325439453125","0.90869140625","-0.0562744140625","-0.2441406100988388","0.30517578125","-0.0610351525247097","110","-59","90","4"
24483,"-0.3253173828125","0.912841796875","-0.0584716796875","-0.1220703050494194","0.2441406100988388","0","110","-59","90","4"
24514,"-0.3248291015625","0.909912109375","-0.0574951171875","-0.1220703050494194","-0.1220703050494194","0","112","-53","88","4"
24545,"-0.324462890625","0.9105224609375","-0.0587158203125","0.1220703050494194","-0.0610351525247097","0","112","-53","88","4"
24576,"-0.3238525390625","0.909423828125","-0.0552978515625","0.2441406100988388","0.1220703050494194","0.0610351525247097","112","-53","88","4"
24607,"-0.325439453125","0.9102783203125","-0.0584716796875","-0.4882812201976776","0.1831054538488388","0.1831054538488388","106","-55","90","4"
24638,"-0.323974609375","0.9124755859375","-0.0577392578125","0","-0.0610351525247097","0.0610351525247097","106","-55","90","4"
24669,"-0.3248291015625","0.9110107421875","-0.0526123046875","0.54931640625","0.3662109076976776","0","106","-55","90","4"
24700,"-0.3243408203125","0.90185546875","-0.05419921875","-0.6713866591453552","0.6713866591453552","-0.4272460639476776","106","-55","90","4"
24731,"-0.3304443359375","0.92138671875","-0.0596923828125","-0.6103515625","0.30517578125","0.4882812201976776","105","-49","89","4"
24763,"-0.3201904296875","0.9100341796875","-0.0596923828125","0.4272460639476776","-0.0610351525247097","0.4882812201976776","105","-49","89","4"
24797,"-0.3236083984375","0.9073486328125","-0.0516357421875","0.3662109076976776","-0.1831054538488388","0.2441406100988388","105","-49","89","4"
24828,"-0.3255615234375","0.9093017578125","-0.055419921875","-0.6713866591453552","-0.1831054538488388","-0.6713866591453552","107","-51","86","4"
24859,"-0.3277587890625","0.912841796875","-0.060791015625","0.30517578125","-0.1831054538488388","-0.6713866591453552","107","-51","86","4"
24894,"-0.328369140625","0.90966796875","-0.0615234375","0.4882812201976776","-0.2441406100988388","-0.1831054538488388","107","-51","86","4"
24925,"-0.324462890625","0.9078369140625","-0.059326171875","0.6713866591453552","-0.30517578125","-0.0610351525247097","109","-53","97","4"
24958,"-0.32373046875","0.908203125","-0.0552978515625","-0.3662109076976776","-0.1220703050494194","-0.30517578125","109","-53","97","4"
24990,"-0.3236083984375","0.9127197265625","-0.055419921875","0.0610351525247097","0","-0.2441406100988388","109","-53","97","4"
25024,"-0.31982421875","0.91455078125","-0.0587158203125","0.3662109076976776","-0.1220703050494194","0.1220703050494194","111","-50","89","4"
25060,"-0.324462890625","0.9091796875","-0.052001953125","0.54931640625","-0.0610351525247097","0","111","-50","89","4"
25095,"-0.322998046875","0.9107666015625","-0.0521240234375","-0.0610351525247097","0.2441406100988388","-0.3662109076976776","111","-50","89","4"
25126,"-0.3251953125","0.9114990234375","-0.0528564453125","-0.1220703050494194","0.3662109076976776","-0.0610351525247097","111","-51","86","4"
25162,"-0.326416015625","0.908935546875","-0.0572509765625","-0.0610351525247097","0.1831054538488388","0.0610351525247097","111","-51","86","4"
25193,"-0.324951171875","0.9132080078125","-0.055908203125","-0.4272460639476776","0","0","111","-51","86","4"
25228,"-0.32373046875","0.91015625","-0.05712890625","-0.54931640625","0.1831054538488388","0.1220703050494194","108","-56","87","4"
25259,"-0.3233642578125","0.9110107421875","-0.06103515625","-0.0610351525247097","0.0610351525247097","0","108","-56","87","4"
25294,"-0.32373046875","0.9124755859375","-0.0577392578125","0.2441406100988388","-0.0610351525247097","0.0610351525247097","108","-56","87","4"
25325,"-0.322998046875","0.9110107421875","-0.0570068359375","-0.2441406100988388","0.1220703050494194","0.1831054538488388","110","-55","89","4"
25356,"-0.3250732421875","0.9085693359375","-0.05908203125","0.3662109076976776","0","0.1220703050494194","110","-55","89","4"
25387,"-0.322509765625","0.9088134765625","-0.0587158203125","0.6103515625","-0.1220703050494194","0.0610351525247097","110","-55","89","4"
25419,"-0.3258056640625","0.911865234375","-0.053466796875","0.1831054538488388","0.1220703050494194","0.1831054538488388","111","-58","87","4"
25450,"-0.323974609375","0.9051513671875","-0.0545654296875","-0.4272460639476776","0.4272460639476776","-0.6103515625","111","-58","87","4"
25481,"-0.3289794921875","0.9173583984375","-0.0592041015625","-0.7934569716453552","0.1831054538488388","-0.4272460639476776","111","-58","87","4"
25515,"-0.3212890625","0.9102783203125","-0.05810546875","1.0986328125","-0.30517578125","0.2441406100988388","111","-55","91","4"
25546,"-0.3206787109375","0.913818359375","-0.053955078125","0.2441406100988388","0.0610351525247097","0","111","-55","91","4"
25577,"-0.322265625","0.9039306640625","-0.0509033203125","0.0610351525247097","0.3662109076976776","-0.6103515625","111","-55","91","4"
25612,"-0.3265380859375","0.920166015625","-0.05908203125","-0.0610351525247097","0.2441406100988388","-0.4272460639476776","111","-58","90","4"
25643,"-0.328125","0.9044189453125","-0.0579833984375","-0.1831054538488388","0.2441406100988388","-0.0610351525247097","111","-58","90","4"
25710,"-0.3251953125","0.9150390625","-0.0523681640625","0","-0.2441406100988388","0","110","-56","93","4"
25745,"-0.3184814453125","0.9036865234375","-0.053466796875","-0.1220703050494194","0.0610351525247097","-0.4882812201976776","110","-56","93","4"
25780,"-0.3192138671875","0.9127197265625","-0.057373046875","0","0.0610351525247097","-0.30517578125","110","-56","93","4"
25811,"-0.3262939453125","0.9144287109375","-0.055908203125","-1.7089842557907104","0.7324218153953552","0.1220703050494194","111","-57","90","4"
25842,"-0.3216552734375","0.912841796875","-0.0592041015625","-0.1220703050494194","0.4882812201976776","0.1831054538488388","111","-57","90","4"
25873,"-0.3240966796875","0.908203125","-0.0574951171875","-0.0610351525247097","0","0.30517578125","111","-57","90","4"
25904,"-0.3231201171875","0.912841796875","-0.05126953125","0","-0.1220703050494194","0.1831054538488388","109","-54","88","4"
25935,"-0.323486328125","0.9052734375","-0.052734375","-0.1220703050494194","0.30517578125","-0.4272460639476776","109","-54","88","4"
25966,"-0.3258056640625","0.9139404296875","-0.0654296875","-0.8544921278953552","0.1220703050494194","-0.2441406100988388","109","-54","88","4"
25997,"-0.3211669921875","0.909423828125","-0.0614013671875","-0.1220703050494194","0","-0.2441406100988388","109","-54","88","4"
26031,"-0.327392578125","0.911376953125","-0.0546875","0.1220703050494194","0.4272460639476776","-0.1220703050494194","112","-52","87","4"
26062,"-0.326171875","0.9130859375","-0.0576171875","-0.4272460639476776","0.1220703050494194","0.30517578125","112","-52","87","4"
26094,"-0.3216552734375","0.9132080078125","-0.06005859375","0.4272460639476776","0.1220703050494194","0.2441406100988388","112","-52","87","4"
26125,"-0.3238525390625","0.9151611328125","-0.0587158203125","-0.6103515625","0.30517578125","0.3662109076976776","106","-55","93","4"
26158,"-0.3232421875","0.9051513671875","-0.051513671875","0.9765624403953552","-0.2441406100988388","0.1831054538488388","106","-55","93","4"
26193,"-0.324951171875","0.9097900390625","-0.0506591796875","-0.7324218153953552","0.54931640625","0","106","-55","93","4"
26224,"-0.324951171875","0.911376953125","-0.0616455078125","-1.4648436307907104","0.4272460639476776","0","106","-53","87","4"
26255,"-0.327880859375","0.9163818359375","-0.06005859375","0.4882812201976776","-0.1831054538488388","0.4272460639476776","106","-53","87","4"
26286,"-0.3194580078125","0.908935546875","-0.0587158203125","-0.2441406100988388","-0.1831054538488388","0.6713866591453552","106","-53","87","4"
26317,"-0.3240966796875","0.910400390625","-0.05517578125","0","0.1220703050494194","0.1220703050494194","110","-54","93","4"
26353,"-0.3267822265625","0.9156494140625","-0.060546875","-0.54931640625","0","-0.30517578125","110","-54","93","4"
26384,"-0.326171875","0.902587890625","-0.0615234375","0.7324218153953552","0.1220703050494194","-0.3662109076976776","110","-54","93","4"
26415,"-0.3294677734375","0.9100341796875","-0.059326171875","0.1220703050494194","0.0610351525247097","-0.1831054538488388","113","-55","89","4"
26446,"-0.3245849609375","0.913818359375","-0.0614013671875","-0.1220703050494194","-0.0610351525247097","0.0610351525247097","113","-55","89","4"
26482,"-0.323974609375","0.91015625","-0.0595703125","-0.3662109076976776","-0.1220703050494194","-0.2441406100988388","113","-55","89","4"
26513,"-0.3206787109375","0.9119873046875","-0.05859375","0.9155272841453552","-0.30517578125","0.1220703050494194","108","-49","90","4"
26549,"-0.3228759765625","0.91650390625","-0.055908203125","0.6103515625","-0.30517578125","0.2441406100988388","108","-49","90","4"
26580,"-0.3231201171875","0.9053955078125","-0.0552978515625","0","-0.4882812201976776","-0.2441406100988388","108","-49","90","4"
26611,"-0.3250732421875","0.91064453125","-0.0548095703125","0.9155272841453552","-0.4272460639476776","-0.6713866591453552","108","-49","90","4"
26645,"-0.324951171875","0.9100341796875","-0.056396484375","-0.4272460639476776","0","0.3662109076976776","111","-55","87","4"
26676,"-0.3265380859375","0.907958984375","-0.0555419921875","-0.1220703050494194","0","0.4882812201976776","111","-55","87","4"
26711,"-0.3289794921875","0.910888671875","-0.06005859375","-0.4272460639476776","-0.3662109076976776","0.6713866591453552","115","-57","89","4"
26742,"-0.3270263671875","0.9129638671875","-0.0577392578125","-0.1831054538488388","-0.4882812201976776","1.03759765625","115","-57","89","4"
26773,"-0.3228759765625","0.918701171875","-0.0533447265625","-0.7324218153953552","0.1220703050494194","0.9765624403953552","115","-57","89","4"
26804,"-0.322509765625","0.901123046875","-0.044189453125","-0.1831054538488388","1.03759765625","-0.3662109076976776","115","-57","89","4"
26835,"-0.3212890625","0.9068603515625","-0.061279296875","-1.8310545682907104","1.6479490995407104","-1.5258787870407104","106","-56","92","4"
26868,"-0.3236083984375","0.9207763671875","-0.07470703125","-0.1220703050494194","1.5258787870407104","-1.4648436307907104","106","-56","92","4"
26899,"-0.3253173828125","0.916748046875","-0.072509765625","-0.1220703050494194","1.0986328125","-0.4272460639476776","106","-56","92","4"
26930,"-0.3272705078125","0.9232177734375","-0.066650390625","2.0751953125","0.8544921278953552","0.1831054538488388","109","-55","89","4"
26961,"-0.3267822265625","0.8975830078125","-0.0560302734375","0.3662109076976776","0.8544921278953552","-0.0610351525247097","109","-55","89","4"
26992,"-0.3311767578125","0.908203125","-0.052001953125","0","0","0.4272460639476776","109","-55","89","4"
27028,"-0.3243408203125","0.9080810546875","-0.0533447265625","-0.30517578125","-0.6103515625","0.9155272841453552","111","-58","83","4"
27064,"-0.3228759765625","0.919921875","-0.0487060546875","1.220703125","-0.6713866591453552","0.6103515625","111","-58","83","4"
27095,"-0.322265625","0.9046630859375","-0.0474853515625","0.0610351525247097","-0.54931640625","-0.2441406100988388","111","-58","83","4"
27126,"-0.3228759765625","0.912109375","-0.0535888671875","-0.6103515625","-0.1831054538488388","-0.54931640625","110","-52","88","4"
27157,"-0.3275146484375","0.9111328125","-0.06201171875","-0.54931640625","0","-0.30517578125","110","-52","88","4"
27188,"-0.324951171875","0.9073486328125","-0.0628662109375","-0.6103515625","0.1831054538488388","0.1831054538488388","110","-52","88","4"
27223,"-0.32421875","0.9090576171875","-0.0618896484375","-0.6713866591453552","0.2441406100988388","0.2441406100988388","108","-56","89","4"
27254,"-0.3260498046875","0.9068603515625","-0.0604248046875","-0.1220703050494194","0.30517578125","0.1220703050494194","108","-56","89","4"
27285,"-0.3228759765625","0.9163818359375","-0.0634765625","-0.2441406100988388","0.4272460639476776","0.30517578125","108","-56","89","4"
27318,"-0.324462890625","0.90625","-0.06103515625","0.1831054538488388","0.2441406100988388","0.30517578125","110","-59","88","4"
27349,"-0.328125","0.9112548828125","-0.052490234375","0.1220703050494194","0.1220703050494194","-0.6103515625","110","-59","88","4"
27383,"-0.326171875","0.909423828125","-0.056884765625","-0.0610351525247097","0","-0.7324218153953552","110","-59","88","4"
27417,"-0.3287353515625","0.9158935546875","-0.0546875","0","-0.3662109076976776","-0.9155272841453552","105","-52","92","4"
27452,"-0.322998046875","0.903564453125","-0.0552978515625","0.30517578125","-0.3662109076976776","-1.4038084745407104","105","-52","92","4"
27483,"-0.321044921875","0.905517578125","-0.0579833984375","-0.2441406100988388","-0.2441406100988388","-1.5258787870407104","105","-52","92","4"
27514,"-0.326904296875","0.9307861328125","-0.0662841796875","-1.4038084745407104","-0.2441406100988388","-0.4272460639476776","111","-57","90","4"
27545,"-0.3226318359375","0.9080810546875","-0.0689697265625","0.9765624403953552","-1.4648436307907104","0.1831054538488388","111","-57","90","4"
27576,"-0.323974609375","0.9071044921875","-0.0604248046875","0.4882812201976776","-1.8920897245407104","0.7324218153953552","111","-57","90","4"
27607,"-0.322998046875","0.904052734375","-0.0478515625","-0.1831054538488388","-1.8310545682907104","1.0986328125","111","-52","91","4"
27639,"-0.3211669921875","0.906982421875","-0.0506591796875","0.0610351525247097","-1.5869139432907104","0.54931640625","111","-52","91","4"
27675,"-0.3238525390625","0.90869140625","-0.0565185546875","-0.4882812201976776","-1.15966796875","-0.7324218153953552","111","-52","91","4"
27710,"-0.3262939453125","0.92626953125","-0.0697021484375","0.54931640625","-1.5869139432907104","-0.4882812201976776","111","-58","90","4"
27741,"-0.3243408203125","0.9007568359375","-0.0555419921875","2.868652105331421","-1.4038084745407104","-0.1831054538488388","111","-58","90","4"
27772,"-0.324951171875","0.9208984375","-0.063720703125","-0.2441406100988388","-0.9155272841453552","-1.0986328125","111","-58","90","4"
27803,"-0.3272705078125","0.9078369140625","-0.0689697265625","2.25830078125","-1.7700194120407104","-1.4038084745407104","111","-58","90","4"
27834,"-0.32177734375","0.89599609375","-0.0653076171875","2.50244140625","-2.197265625","0.0610351525247097","112","-55","89","4"
27865,"-0.321044921875","0.9085693359375","-0.062744140625","1.15966796875","-2.197265625","0.9765624403953552","112","-55","89","4"
27900,"-0.3192138671875","0.9158935546875","-0.049072265625","0.7324218153953552","-2.0751953125","2.01416015625","112","-55","89","4"
27936,"-0.3173828125","0.9110107421875","-0.0421142578125","-0.2441406100988388","-1.7089842557907104","1.7089842557907104","111","-58","91","4"
27972,"-0.3162841796875","0.9033203125","-0.0439453125","0.6103515625","-1.3427733182907104","1.03759765625","111","-58","91","4"
28003,"-0.3211669921875","0.9085693359375","-0.0462646484375","-0.7324218153953552","-0.7324218153953552","0.3662109076976776","111","-58","91","4"
28036,"-0.3255615234375","0.915283203125","-0.0574951171875","-1.4038084745407104","-0.1831054538488388","-0.2441406100988388","113","-51","88","4"
28072,"-0.3258056640625","0.913330078125","-0.0657958984375","0.6103515625","-0.3662109076976776","0.0610351525247097","113","-51","88","4"
28103,"-0.3248291015625","0.90185546875","-0.0611572265625","0.0610351525247097","-0.1831054538488388","0.1220703050494194","113","-51","88","4"
28134,"-0.3240966796875","0.9051513671875","-0.0615234375","-0.8544921278953552","0.8544921278953552","0.6103515625","110","-53","89","4"
28165,"-0.32763671875","0.9183349609375","-0.063720703125","-1.220703125","1.0986328125","0.8544921278953552","110","-53","89","4"
28232,"-0.324462890625","0.8887939453125","-0.043701171875","1.8310545682907104","1.3427733182907104","2.13623046875","112","-51","93","4"
28267,"-0.3275146484375","0.91455078125","-0.050048828125","-0.7324218153953552","1.9531248807907104","1.4648436307907104","112","-51","93","4"
28298,"-0.326904296875","0.912109375","-0.05810546875","-1.7089842557907104","1.7089842557907104","0.54931640625","112","-51","93","4"
28329,"-0.3299560546875","0.91650390625","-0.05615234375","0.1220703050494194","1.5869139432907104","0","110","-56","93","4"
28360,"-0.32958984375","0.897705078125","-0.053466796875","-1.7700194120407104","1.03759765625","0.4272460639476776","110","-56","93","4"
28392,"-0.328857421875","0.9122314453125","-0.0579833984375","-0.6713866591453552","0.7324218153953552","0.9765624403953552","110","-56","93","4"
28423,"-0.3231201171875","0.906982421875","-0.058837890625","-1.3427733182907104","1.4648436307907104","0.7934569716453552","107","-49","91","4"
28454,"-0.3248291015625","0.9114990234375","-0.062744140625","-1.03759765625","2.01416015625","0.8544921278953552","107","-49","91","4"
28485,"-0.333251953125","0.9091796875","-0.05859375","-1.7089842557907104","2.3193359375","0.1220703050494194","107","-49","91","4"
28521,"-0.335205078125","0.9100341796875","-0.0662841796875","-1.3427733182907104","2.38037109375","-0.4882812201976776","110","-53","89","4"
28556,"-0.335205078125","0.911865234375","-0.068359375","-1.4038084745407104","2.50244140625","-0.7934569716453552","110","-53","89","4"
28587,"-0.329833984375","0.9046630859375","-0.0682373046875","-0.6713866591453552","2.25830078125","-0.30517578125","110","-53","89","4"
28621,"-0.332763671875","0.9066162109375","-0.0650634765625","-0.7934569716453552","1.7700194120407104","-0.1220703050494194","112","-55","92","4"
28652,"-0.33056640625","0.9061279296875","-0.0675048828125","-0.54931640625","1.3427733182907104","0.1831054538488388","112","-55","92","4"
28686,"-0.32861328125","0.91259765625","-0.070068359375","-0.30517578125","0.6103515625","0.7934569716453552","112","-55","92","4"
28717,"-0.3306884765625","0.904052734375","-0.0682373046875","-0.54931640625","0.1220703050494194","0.6103515625","112","-56","93","4"
28748,"-0.33154296875","0.90966796875","-0.068359375","-0.3662109076976776","-0.4272460639476776","0.4272460639476776","112","-56","93","4"
28779,"-0.337646484375","0.904052734375","-0.065185546875","0.9765624403953552","-1.0986328125","0.6713866591453552","112","-56","93","4"
28810,"-0.33642578125","0.901611328125","-0.068359375","-0.1831054538488388","-1.5869139432907104","1.03759765625","112","-56","93","4"
28844,"-0.3392333984375","0.9085693359375","-0.07568359375","-0.0610351525247097","-1.9531248807907104","0.6713866591453552","111","-56","85","4"
28875,"-0.3353271484375","0.9130859375","-0.0809326171875","-0.4272460639476776","-2.624511480331421","0.4882812201976776","111","-56","85","4"
28906,"-0.3377685546875","0.9078369140625","-0.0738525390625","2.746581792831421","-5.249022960662842","1.15966796875","112","-57","91","4"
28937,"-0.3343505859375","0.8985595703125","-0.0625","2.50244140625","-5.920409679412842","1.03759765625","112","-57","91","4"
28968,"-0.3326416015625","0.9105224609375","-0.062255859375","1.2817381620407104","-4.8828125","0.7934569716453552","112","-57","91","4"
29004,"-0.335693359375","0.90234375","-0.07275390625","1.9531248807907104","-4.8828125","0.4272460639476776","112","-57","91","4"
29035,"-0.3338623046875","0.907470703125","-0.0677490234375","2.44140625","-5.798339366912842","0.8544921278953552","110","-51","90","4"
29070,"-0.3316650390625","0.9111328125","-0.0677490234375","4.45556640625","-6.042479991912842","1.15966796875","110","-51","90","4"
29104,"-0.332275390625","0.90673828125","-0.0634765625","3.173827886581421","-6.225585460662842","1.6479490995407104","110","-51","90","4"
29136,"-0.333984375","0.90185546875","-0.0574951171875","4.33349609375","-6.225585460662842","1.8310545682907104","112","-49","93","4"
29167,"-0.3377685546875","0.915771484375","-0.0667724609375","0.7324218153953552","-5.798339366912842","1.03759765625","112","-49","93","4"
29198,"-0.3372802734375","0.90576171875","-0.0706787109375","3.723144292831421","-5.859374523162842","0.8544921278953552","112","-49","93","4"
29229,"-0.343994140625","0.9049072265625","-0.0538330078125","4.5166015625","-5.798339366912842","0.54931640625","108","-55","95","4"
29262,"-0.33935546875","0.901123046875","-0.0535888671875","3.173827886581421","-6.103515148162842","0.30517578125","108","-55","95","4"
29293,"-0.3369140625","0.9044189453125","-0.0562744140625","2.0751953125","-6.103515148162842","-0.1220703050494194","108","-55","95","4"
29324,"-0.333984375","0.9093017578125","-0.0626220703125","2.0751953125","-6.103515148162842","0","109","-51","88","4"
29355,"-0.33544921875","0.9056396484375","-0.057373046875","3.112792730331421","-5.737304210662842","-0.1220703050494194","109","-51","88","4"
29386,"-0.333984375","0.9093017578125","-0.0557861328125","2.0751953125","-5.432128429412842","-0.2441406100988388","109","-51","88","4"
29417,"-0.3359375","0.9036865234375","-0.0574951171875","2.0751953125","-5.065917491912842","-0.1831054538488388","112","-50","91","4"
29448,"-0.335693359375","0.9049072265625","-0.0567626953125","1.6479490995407104","-4.69970703125","-0.0610351525247097","112","-50","91","4"
29481,"-0.33837890625","0.9122314453125","-0.055419921875","1.4038084745407104","-4.2724609375","0.1220703050494194","112","-50","91","4"
29517,"-0.3358154296875","0.9051513671875","-0.060302734375","0","-4.2724609375","-0.4882812201976776","106","-51","90","4"
29548,"-0.3328857421875","0.91845703125","-0.068115234375","0.1831054538488388","-4.33349609375","-0.4272460639476776","106","-51","90","4"
29582,"-0.330810546875","0.8800048828125","-0.052734375","4.2724609375","-3.662109136581421","-0.1831054538488388","106","-51","90","4"
29616,"-0.3343505859375","0.9193115234375","-0.0577392578125","0.0610351525247097","-4.0283203125","-1.0986328125","108","-51","93","4"
29647,"-0.32763671875","0.8912353515625","-0.0601806640625","1.220703125","-3.234863042831421","-0.3662109076976776","108","-51","93","4"
29678,"-0.3369140625","0.9166259765625","-0.059814453125","1.9531248807907104","-3.173827886581421","-0.1831054538488388","108","-51","93","4"
29709,"-0.3316650390625","0.9049072265625","-0.0556640625","0.4882812201976776","-2.13623046875","0.3662109076976776","109","-52","89","4"
29740,"-0.328369140625","0.90869140625","-0.05419921875","1.4648436307907104","-1.0986328125","0.54931640625","109","-52","89","4"
29771,"-0.3326416015625","0.9029541015625","-0.0540771484375","-0.54931640625","-1.2817381620407104","0.0610351525247097","109","-52","89","4"
29802,"-0.333740234375","0.901611328125","-0.0567626953125","2.01416015625","-1.2817381620407104","0.0610351525247097","109","-52","89","4"
29837,"-0.332275390625","0.9117431640625","-0.0556640625","0.1831054538488388","-0.6103515625","-0.1220703050494194","110","-48","91","4"
29868,"-0.32666015625","0.906005859375","-0.0576171875","0.8544921278953552","0.6713866591453552","0.0610351525247097","110","-48","91","4"
29899,"-0.3316650390625","0.89990234375","-0.0467529296875","0","1.4038084745407104","0.1220703050494194","110","-48","91","4"
29930,"-0.3287353515625","0.912353515625","-0.0491943359375","-0.6103515625","1.7089842557907104","0.7324218153953552","109","-54","88","4"
29961,"-0.329833984375","0.91162109375","-0.0465087890625","0.1220703050494194","2.807616949081421","1.0986328125","109","-54","88","4"
29996,"-0.329833984375","0.902587890625","-0.0496826171875","-1.4648436307907104","4.8828125","0.4882812201976776","109","-54","88","4"
30028,"-0.330322265625","0.91357421875","-0.0537109375","-3.601073980331421","6.286620616912842","-0.1831054538488388","113","-52","94","4"
30061,"-0.3343505859375","0.9110107421875","-0.05859375","-3.662109136581421","6.713866710662842","-0.4272460639476776","113","-52","94","4"
30097,"-0.3363037109375","0.9083251953125","-0.057373046875","-2.990722417831421","6.713866710662842","0.0610351525247097","113","-52","94","4"
30128,"-0.3370361328125","0.903564453125","-0.0526123046875","-2.44140625","7.385253429412842","0.3662109076976776","108","-48","90","4"
30161,"-0.3367919921875","0.906005859375","-0.0545654296875","-4.2724609375","8.056640625","-0.1831054538488388","108","-48","90","4"
30197,"-0.3359375","0.9072265625","-0.058349609375","-3.845214605331421","8.056640625","-0.30517578125","108","-48","90","4"
30231,"-0.3355712890625","0.9114990234375","-0.06103515625","-4.150390625","8.23974609375","-0.4882812201976776","109","-49","91","4"
30262,"-0.33740234375","0.9068603515625","-0.0601806640625","-3.845214605331421","8.36181640625","-0.54931640625","109","-49","91","4"
30293,"-0.33984375","0.9107666015625","-0.06591796875","-4.57763671875","8.056640625","-0.6713866591453552","109","-49","91","4"
30358,"-0.332763671875","0.9083251953125","-0.0638427734375","-3.601073980331421","8.056640625","0.2441406100988388","110","-52","93","4"
30423,"-0.3402099609375","0.9100341796875","-0.066650390625","-4.150390625","8.6669921875","-1.15966796875","110","-57","89","4"
30456,"-0.3409423828125","0.909423828125","-0.0673828125","-3.662109136581421","8.48388671875","-1.220703125","110","-57","89","4"
30491,"-0.336669921875","0.902099609375","-0.0682373046875","-2.50244140625","8.11767578125","-0.6713866591453552","110","-57","89","4"
30522,"-0.333251953125","0.9083251953125","-0.0673828125","-2.563476324081421","7.934569835662842","-0.6713866591453552","112","-55","93","4"
30554,"-0.3388671875","0.90380859375","-0.0595703125","-2.807616949081421","8.056640625","-1.03759765625","112","-55","93","4"
30585,"-0.3343505859375","0.9051513671875","-0.066650390625","-2.38037109375","7.568358898162842","-1.15966796875","112","-55","93","4"
30616,"-0.333740234375","0.9051513671875","-0.0679931640625","-2.807616949081421","7.263183116912842","-0.8544921278953552","113","-57","93","4"
