Time (ms),Accelerometer X (mGal),Accelerometer Y (mGal),Accelerometer Z (mGal),Gyro X,Gyro Y,Gyro Z,Locomotion,Arm Motion,Arm Object
0,-870,532,137,305,90,471,0,0,0
33,-881,619,268,-841,180,539,0,0,0
67,-871,373,230,-1483,247,394,0,0,0
100,-906,313,233,-1210,291,251,0,0,0
133,-917,302,240,-1020,287,202,0,0,0
167,-925,228,304,-588,168,114,0,0,0
200,-921,271,285,-51,-28,-24,0,0,0
233,-957,356,264,139,-57,-135,0,0,0
267,-914,401,259,166,-83,-155,0,0,0
300,-898,419,266,63,8,-127,0,0,0
333,-896,432,297,-59,51,-79,0,0,0
367,-858,415,295,-89,22,73,0,0,0
400,-828,406,294,-88,82,109,0,0,0
433,-834,426,315,-201,61,102,0,0,0
467,-838,421,319,-302,86,192,0,0,0
500,-835,394,301,-311,87,284,0,0,0
533,-836,388,289,-319,77,327,0,0,0
567,-839,381,296,-374,87,314,0,0,0
600,-847,383,280,-342,68,312,0,0,0
633,-850,391,239,-272,109,407,0,0,0
667,-871,326,266,-433,144,358,0,0,0
700,-860,341,270,-364,164,257,0,0,0
733,-847,373,259,-277,193,286,0,0,0
767,-838,344,256,-418,238,187,0,0,0
800,-844,342,254,-422,305,200,0,0,0
833,-869,372,281,-394,368,129,0,0,0
867,-888,389,289,-360,358,100,0,0,0
900,-921,406,297,-398,378,76,0,0,0
933,-907,414,307,-347,367,100,0,0,0
967,-889,416,319,-402,370,66,0,0,0
1000,-858,422,313,-482,417,92,0,0,0
1033,-825,425,314,-570,444,92,0,0,0
1067,-846,448,314,-749,462,52,0,0,0
1100,-881,459,300,-965,503,32,0,0,0
1133,-900,434,254,-1067,538,150,0,0,0
1167,-934,420,211,-1094,619,352,0,0,0
1200,-965,393,211,-1112,577,408,0,0,0
1233,-911,308,190,-1035,416,451,0,0,0
1267,-902,267,196,-784,285,391,0,0,0
1300,-912,262,196,-537,243,218,0,0,0
1333,-933,308,222,-316,302,57,0,0,0
1367,-914,354,222,-335,250,92,0,0,0
1400,-915,340,199,-473,259,172,0,0,0
1433,-928,301,196,-464,235,114,0,0,0
1467,-921,276,234,-339,120,87,0,0,0
1500,-924,276,238,-153,25,61,0,0,0
1533,-944,271,241,-4,-114,31,0,0,0
1567,-958,295,258,269,-261,101,0,0,0
1600,-1021,344,291,378,-491,267,0,0,0
1633,-1036,416,289,272,-598,521,0,0,0
1667,-1022,566,343,-188,-513,956,0,0,0
1700,-1007,687,469,-1337,-346,1508,0,0,0
1733,-1014,663,522,-2637,-278,1792,0,0,0
1767,-973,552,515,-3147,-321,1767,0,0,0
1800,-892,500,650,-2997,-526,1602,0,0,0
1833,-779,499,689,-2371,-1017,1258,0,0,0
1867,-702,512,709,-1726,-1426,960,0,0,0
1900,-614,521,776,-1160,-1966,699,0,0,0
1933,-584,673,830,-673,-2590,542,0,0,0
1967,-538,833,856,-380,-3163,769,0,0,0
2000,-439,851,865,-441,-3384,1372,0,0,0
2033,-249,616,816,-176,-3408,1784,0,0,0
2067,-113,479,773,-296,-3242,1953,0,0,0
2100,-124,348,900,-1024,-3067,1857,0,0,0
2133,-149,110,916,-1228,-3010,1363,0,0,0
2167,-195,70,965,-1030,-2830,845,0,0,0
2200,-238,163,1041,-1095,-2821,385,0,0,0
2233,-156,159,923,-1469,-2665,-57,0,0,0
2267,-51,194,871,-1823,-2367,-357,0,0,0
2300,5,228,906,-2385,-2118,-827,0,0,0
2333,137,177,756,-3004,-1879,-1360,0,0,0
2367,249,70,666,-3137,-1705,-2117,0,0,0
2400,334,135,619,-2562,-1739,-2765,0,0,0
2433,459,274,466,-2175,-1792,-3225,0,0,0
2467,487,527,521,-2250,-1875,-3329,0,0,0
2500,576,545,438,-1853,-2043,-3000,0,0,0
2533,718,634,316,-1083,-2121,-2527,0,0,0
2567,842,682,348,-920,-2110,-1940,0,0,0
2600,921,567,260,-794,-2047,-1363,0,0,0
2633,1072,408,115,-43,-1498,-760,0,0,0
2667,1084,404,196,355,-960,-234,0,0,0
2700,1010,431,216,-27,-615,20,0,0,0
2733,946,304,241,-22,-329,197,0,0,0
2767,878,354,305,223,-252,239,0,0,0
2800,843,345,251,277,-115,279,0,0,0
2833,856,310,258,541,70,376,0,0,0
2867,896,293,255,649,64,393,0,0,0
2900,958,279,251,866,-152,256,0,0,0
2933,1060,308,183,1358,-338,188,0,0,0
2967,1121,429,56,1751,-463,206,0,0,0
3000,1147,522,107,2023,-575,371,0,0,0
3033,1205,576,-89,2792,-641,517,0,0,0
3067,1203,765,-134,3377,-767,633,0,0,0
3100,993,953,-314,3882,-482,819,0,0,0
3133,737,1149,-434,4250,444,1308,0,0,0
3167,573,1151,-368,4306,1389,1860,0,0,0
3200,610,961,-326,4540,2600,2463,0,0,0
3233,451,923,-387,4590,4060,2657,0,0,0
3267,177,881,-319,4301,5261,2694,0,0,0
3300,-76,543,266,3257,6589,2837,0,0,0
3333,-1292,-749,1246,-45,5045,3500,0,0,0
3367,743,1040,-734,-1812,1131,134,0,0,0
3400,1429,-1019,683,2780,2156,-54,0,0,0
3433,672,629,1005,297,419,-691,0,0,0
3467,884,76,777,-352,298,48,0,0,0
3500,678,98,924,443,68,63,0,0,0
3533,727,33,929,-208,157,180,0,0,0
3567,744,-11,815,-246,153,161,0,0,0
3600,715,67,792,-314,10,119,0,0,0
3633,642,45,779,-322,-114,73,0,0,0
3667,609,59,804,-344,-171,89,0,0,0
3700,606,12,781,-299,-242,51,0,0,0
3733,640,12,744,-256,-264,20,0,0,0
3767,642,15,823,-325,-327,-1,0,0,0
3800,696,-15,802,-504,-438,-70,0,0,0
3833,697,-22,761,-715,-411,-45,0,0,0
3867,660,-50,774,-771,-246,-40,0,0,0
3900,645,-40,779,-696,-272,1,0,0,0
3933,649,-121,720,-652,-281,-37,0,0,0
3967,639,-203,673,-519,-330,-225,0,0,0
4000,633,-82,582,-453,-125,-323,0,0,0
4033,643,-123,653,-732,-16,-411,0,0,0
4067,723,-133,584,-596,-149,-687,0,0,0
4100,722,-181,541,-408,-127,-809,0,0,0
4133,656,-105,655,-287,-224,-879,0,0,0
4167,667,-111,740,-104,-450,-956,0,0,0
4200,663,-32,728,-157,-576,-1052,0,0,0
4233,635,43,917,-691,-636,-1139,0,0,0
4267,663,-3,927,-1118,-608,-1192,0,0,0
4300,684,65,860,-1524,-299,-1320,0,0,0
4333,712,117,837,-2505,5,-1376,0,0,0
4367,693,52,807,-2945,33,-1703,0,0,0
4400,650,107,753,-3239,-92,-2151,0,0,0
4433,638,187,657,-3116,-246,-2537,0,0,0
4467,604,237,687,-2343,-720,-2826,0,0,0
4500,599,470,637,-2356,-1370,-2967,0,0,0
4533,599,585,604,-2639,-1938,-2961,0,0,0
4567,609,665,552,-2348,-2438,-2775,0,0,0
4600,658,734,518,-2291,-2798,-2450,0,0,0
4633,767,725,420,-2420,-2785,-2045,0,0,0
4667,848,706,302,-2623,-2393,-1575,0,0,0
4700,959,663,117,-2779,-1872,-1141,0,0,0
4733,1038,565,-151,-2460,-1326,-806,0,0,0
4767,1035,551,-302,-1707,-844,-553,0,0,0
4800,1016,529,-412,-1180,-555,-436,0,0,0
4833,1064,445,-446,-777,-261,-260,0,0,0
4867,1058,389,-350,-203,-10,-135,0,0,0
4900,1001,410,-177,51,153,-125,0,0,0
4933,957,438,-8,342,289,-18,0,0,0
4967,931,478,73,488,365,97,0,0,0
5000,852,445,110,546,473,257,0,0,0
5033,880,418,-67,1073,453,363,0,0,0
5067,883,467,-173,1763,585,468,0,0,0
5100,926,524,-272,2094,759,577,0,0,0
5133,949,535,-293,2450,880,611,0,0,0
5167,987,582,-320,2930,1138,683,0,0,0
5200,962,655,-232,3689,1362,745,0,0,0
5233,955,849,-184,4039,1555,678,0,0,0
5267,979,1111,-127,4161,1787,759,0,0,0
5300,1072,1346,24,4237,1844,1162,0,0,0
5333,949,1431,235,4436,1372,1708,0,0,0
5367,767,1559,143,4579,1300,2178,0,0,0
5400,495,1456,118,5057,2124,2772,0,0,0
5433,324,1220,7,5108,3314,3317,0,0,0
5467,-110,1011,197,3661,5037,3407,0,0,0
5500,-254,546,812,1666,6056,3589,0,0,0
5533,-1747,-474,1331,-3023,-1093,-703,0,0,0
5567,1814,-450,-418,-867,381,1791,0,0,0
5600,456,-178,739,1977,942,-184,0,0,0
5633,943,435,424,-1295,207,2,0,0,0
5667,839,-221,551,271,-1,228,0,0,0
5700,747,-23,748,13,-160,216,0,0,0
5733,802,-171,665,-201,-83,165,0,0,0
5767,817,-126,593,-88,-26,61,0,0,0
5800,794,-101,617,-90,-34,-99,0,0,0
5833,781,-49,617,-78,-51,-77,0,0,0
5867,770,-28,618,-34,10,-23,0,0,0
5900,761,-40,609,-44,52,35,0,0,0
5933,742,-72,626,9,-41,19,0,0,0
5967,761,-103,612,70,-30,-26,0,0,0
6000,737,-92,671,84,-69,-86,0,0,0
6033,761,-85,693,-19,-79,-134,0,0,0
6067,745,-95,718,-199,-86,-168,0,0,0
6100,670,-102,739,-421,-76,-278,0,0,0
6133,588,-178,810,-544,20,-460,0,0,0
6167,608,-163,883,-621,-146,-668,0,0,0
6200,621,-144,833,-927,-236,-929,0,0,0
6233,630,-135,814,-1246,-282,-1240,0,0,0
6267,618,-59,780,-1537,-223,-1525,0,0,0
6300,584,-36,747,-1734,-106,-1720,0,0,0
6333,626,11,766,-1830,-97,-2051,0,0,0
6367,648,120,737,-1980,-233,-2234,0,0,0
6400,621,156,745,-2233,-333,-2357,0,0,0
6433,636,229,749,-2311,-629,-2594,0,0,0
6467,641,290,681,-2139,-854,-2735,0,0,0
6500,661,369,669,-1807,-1085,-2723,0,0,0
6533,645,485,659,-1879,-1418,-2710,0,0,0
6567,682,580,537,-2475,-1654,-2790,0,0,0
6600,698,567,451,-2395,-1648,-2793,0,0,0
6633,650,612,468,-1730,-1732,-2584,0,0,0
6667,632,693,404,-1496,-2020,-2419,0,0,0
6700,670,771,309,-1622,-2094,-2280,0,0,0
6733,648,738,235,-1497,-2051,-2040,0,0,0
6767,673,716,130,-1056,-1735,-1842,0,0,0
6800,730,801,73,-843,-1397,-1447,0,0,0
6833,834,779,-21,-818,-873,-1081,0,0,0
6867,820,773,18,-861,-620,-932,0,0,0
6900,826,848,-4,-1281,-576,-810,0,0,0
6933,883,736,-94,-736,-448,-727,0,0,0
6967,880,768,-123,153,-249,-391,0,0,0
7000,855,786,-108,509,-212,-128,0,0,0
7033,882,819,-155,682,-9,154,0,0,0
7067,817,848,-138,805,332,434,0,0,0
7100,759,840,-121,1017,667,629,0,0,0
7133,718,892,-103,1194,914,924,0,0,0
7167,668,885,-52,1317,1119,1253,0,0,0
7200,731,801,-5,1631,1089,1485,0,0,0
7233,821,729,58,1930,1130,1584,0,0,0
7267,859,649,135,2234,1079,1632,0,0,0
7300,877,660,130,2424,1172,1585,0,0,0
7333,834,688,158,2583,1332,1677,0,0,0
7367,794,768,92,2699,1563,1826,0,0,0
7400,788,785,67,2831,1852,2050,0,0,0
7433,746,750,89,2976,2060,2241,0,0,0
7467,765,704,95,3168,2174,2363,0,0,0
7500,820,712,91,3324,2252,2480,0,0,0
7533,722,645,184,3449,2468,2519,0,0,0
7567,719,558,253,3318,2254,2291,0,0,0
7600,780,760,-53,2977,2517,2086,0,0,0
7633,472,641,223,2713,3349,2389,0,0,0
7667,141,389,505,2096,4128,2253,0,0,0
7700,-62,-97,148,932,4963,1935,0,0,0
7733,-280,314,1084,-3529,-1982,-635,0,0,0
7767,1878,-825,-72,1438,605,594,0,0,0
7800,746,600,360,1589,1095,-503,0,0,0
7833,685,511,820,-1410,491,-166,0,0,0
7867,670,-5,801,-138,-423,63,0,0,0
7900,651,154,740,563,-356,298,0,0,0
7933,688,-25,808,-73,-173,224,0,0,0
7967,748,-26,731,-116,-111,73,0,0,0
8000,761,58,687,-121,-105,62,0,0,0
8033,706,45,700,-29,-122,23,0,0,0
8067,687,56,691,-39,-75,17,0,0,0
8100,694,60,675,-20,-2,5,0,0,0
8133,687,53,687,40,23,44,0,0,0
8167,695,59,709,50,7,-2,0,0,0
8200,706,63,698,29,-34,40,0,0,0
8233,706,41,713,58,-2,37,0,0,0
8267,682,44,756,77,-68,-20,0,0,0
8300,658,45,824,3,-144,-44,0,0,0
8333,656,43,875,-256,-207,-41,0,0,0
8367,645,25,888,-503,-283,-17,0,0,0
8400,606,-46,769,-750,-278,-160,0,0,0
8433,539,-83,900,-745,-362,-368,0,0,0
8467,515,-47,959,-695,-615,-603,0,0,0
8500,484,-9,939,-1190,-701,-818,0,0,0
8533,511,5,932,-1787,-675,-1172,0,0,0
8567,526,-12,880,-1929,-737,-1409,0,0,0
8600,593,34,792,-2024,-879,-1820,0,0,0
8633,634,133,730,-2411,-978,-2232,0,0,0
8667,682,200,587,-2500,-1030,-2468,0,0,0
8700,736,303,523,-2341,-1131,-2704,0,0,0
8733,743,445,491,-2208,-1183,-2547,0,0,0
8767,798,454,418,-2252,-1244,-2290,0,0,0
8800,818,497,391,-2267,-1226,-2137,0,0,0
8833,782,495,399,-2284,-1282,-2106,0,0,0
8867,789,459,347,-2101,-1450,-2105,0,0,0
8900,744,493,324,-1764,-1578,-2080,0,0,0
8933,743,500,275,-1494,-1684,-2066,0,0,0
8967,764,548,297,-1217,-1665,-1908,0,0,0
9000,764,548,330,-1233,-1731,-1763,0,0,0
9033,794,557,201,-1491,-1575,-1799,0,0,0
9067,855,583,133,-1357,-1206,-1586,0,0,0
9100,864,600,111,-939,-916,-1280,0,0,0
9133,911,686,44,-811,-745,-1130,0,0,0
9167,947,802,-33,-1038,-466,-874,0,0,0
9200,919,769,-40,-760,-151,-479,0,0,0
9233,911,728,-17,-288,-56,-114,0,0,0
9267,861,768,15,-259,-4,86,0,0,0
9300,809,655,49,34,78,311,0,0,0
9333,780,652,51,337,226,491,0,0,0
9367,796,622,32,619,459,543,0,0,0
9400,767,657,28,922,759,746,0,0,0
9433,750,729,-10,1027,872,837,0,0,0
9467,803,735,-56,1132,960,1120,0,0,0
9500,872,696,-38,1619,1020,1430,0,0,0
9533,920,708,-37,2348,1135,1604,0,0,0
9567,917,743,-47,2766,1294,1823,0,0,0
9600,962,754,-44,3004,1528,2113,0,0,0
9633,941,760,-2,3330,1697,2234,0,0,0
9667,881,806,67,3614,1903,2409,0,0,0
9700,790,789,55,3805,1973,2428,0,0,0
9733,751,917,-18,4031,2138,2410,0,0,0
9767,605,1012,129,4089,2384,2465,0,0,0
9800,523,961,166,4078,2508,2535,0,0,0
9833,446,950,29,3876,3093,2488,0,0,0
9867,268,730,373,3118,4172,2603,0,0,0
9900,42,446,930,1770,4819,2419,0,0,0
9933,-1518,-324,1575,-5578,927,-66,0,0,0
9967,225,408,1146,-1772,-1171,-262,0,0,0
10000,1877,-841,35,1709,658,529,0,0,0
10033,808,718,324,132,725,-517,0,0,0
10067,532,462,737,-1634,179,31,0,0,0
10100,576,-18,756,333,-579,185,0,0,0
10133,665,114,662,491,-246,339,0,0,0
10167,685,-43,798,-285,51,211,0,0,0
10200,737,26,761,-222,-100,98,0,0,0
10233,780,61,676,-82,-208,63,0,0,0
10267,729,62,665,-78,-102,42,0,0,0
10300,645,91,756,-138,-18,40,0,0,0
10333,672,63,719,-139,-60,105,0,0,0
10367,704,44,664,-86,-5,87,0,0,0
10400,685,41,710,-88,-16,69,0,0,0
10433,676,37,749,24,-126,10,0,0,0
10467,687,47,772,-16,-169,18,0,0,0
10500,712,47,761,-129,-119,72,0,0,0
10533,660,42,768,-297,-123,64,0,0,0
10567,654,-19,758,-338,-184,-30,0,0,0
10600,614,-14,786,-337,-275,-131,0,0,0
10633,605,-42,822,-392,-393,-274,0,0,0
10667,646,-33,824,-576,-564,-390,0,0,0
10700,630,-43,793,-765,-582,-562,0,0,0
10733,661,-43,742,-852,-508,-717,0,0,0
10767,693,-10,730,-1024,-565,-967,0,0,0
10800,650,-10,702,-1172,-504,-1109,0,0,0
10833,614,6,711,-1275,-350,-1242,0,0,0
10867,581,62,741,-1594,-337,-1447,0,0,0
10900,598,59,745,-1961,-342,-1716,0,0,0
10933,627,74,748,-2125,-378,-2077,0,0,0
10967,628,116,736,-2243,-490,-2328,0,0,0
11000,650,197,740,-2465,-606,-2725,0,0,0
11033,663,326,728,-2636,-807,-3036,0,0,0
11067,645,416,730,-2574,-1127,-3149,0,0,0
11100,669,535,684,-2498,-1436,-3240,0,0,0
11133,608,615,666,-2516,-1747,-3247,0,0,0
11167,592,700,509,-2405,-2073,-3102,0,0,0
11200,566,789,436,-1900,-2209,-2817,0,0,0
11233,589,778,340,-1277,-2314,-2435,0,0,0
11267,691,851,136,-1139,-2198,-1980,0,0,0
11300,847,857,-6,-1335,-1742,-1449,0,0,0
11333,921,775,62,-1277,-1138,-1007,0,0,0
11367,980,723,42,-978,-775,-570,0,0,0
11400,954,767,128,-1023,-508,-181,0,0,0
11433,927,673,188,-873,-563,43,0,0,0
11467,867,629,202,-517,-543,238,0,0,0
11500,854,608,233,-481,-594,433,0,0,0
11533,862,580,200,-574,-507,608,0,0,0
11567,840,483,186,-478,-413,662,0,0,0
11600,800,445,137,-168,-294,638,0,0,0
11633,787,425,68,41,-176,635,0,0,0
11667,811,394,-12,233,-63,585,0,0,0
11700,868,440,-115,597,89,488,0,0,0
11733,834,484,-138,1156,339,466,0,0,0
11767,867,562,-179,1623,419,522,0,0,0
11800,927,662,-205,1833,516,695,0,0,0
11833,942,663,-220,2815,589,826,0,0,0
11867,990,810,-225,3717,706,976,0,0,0
11900,975,930,-196,3991,1025,1181,0,0,0
11933,941,1083,-193,4660,1479,1438,0,0,0
11967,789,1243,-216,5086,2068,1782,0,0,0
12000,667,1306,-125,5337,2492,1964,0,0,0
12033,613,1433,-77,5497,2838,2279,0,0,0
12067,402,1417,16,5846,3389,2672,0,0,0
12100,242,1312,69,5653,4154,2829,0,0,0
12133,187,1175,152,4450,5589,3063,0,0,0
12167,-468,299,935,2896,7077,3206,0,0,0
12200,-337,-511,1584,-4248,-2984,-1815,0,0,0
12233,1877,-910,92,276,977,1083,0,0,0
12267,997,274,185,1911,610,-825,0,0,0
12300,831,797,334,-1161,-91,-267,0,0,0
12333,682,4,554,-61,-329,210,0,0,0
12367,613,78,798,604,-79,377,0,0,0
12400,784,-25,775,-61,-4,324,0,0,0
12433,845,-20,605,-7,-85,150,0,0,0
12467,804,50,607,48,-76,47,0,0,0
12500,668,99,767,43,-50,9,0,0,0
12533,691,71,759,28,-158,33,0,0,0
12567,725,44,677,-44,-137,8,0,0,0
12600,722,37,659,-178,-99,-63,0,0,0
12633,673,32,687,-204,-161,-156,0,0,0
12667,658,59,711,-67,-250,-265,0,0,0
12700,671,64,720,-67,-358,-362,0,0,0
12733,622,76,761,-193,-441,-423,0,0,0
12767,621,77,781,-573,-465,-574,0,0,0
12800,603,4,784,-776,-617,-853,0,0,0
12833,606,32,731,-852,-631,-1014,0,0,0
12867,619,67,701,-995,-617,-1328,0,0,0
12900,609,93,645,-1120,-660,-1703,0,0,0
12933,556,132,502,-1182,-556,-2065,0,0,0
12967,512,174,419,-1270,-223,-2488,0,0,0
13000,458,238,401,-1197,189,-2911,0,0,0
13033,402,291,353,-900,483,-3334,0,0,0
13067,361,279,290,-345,787,-3875,0,0,0
13100,246,347,343,69,934,-4592,0,0,0
13133,157,467,373,128,1054,-5250,0,0,0
13167,27,638,368,15,1079,-5736,0,0,0
13200,-79,807,375,108,1332,-5983,0,0,0
13233,-247,967,457,386,1596,-5744,0,0,0
13267,-406,1124,496,267,1819,-5525,0,0,0
13300,-599,1132,530,153,2077,-5093,0,0,0
13333,-844,886,591,907,2171,-4953,0,0,0
13367,-1454,1194,709,1232,1703,-5037,0,0,0
13400,-1245,1323,641,208,1087,-3849,0,0,0
13433,-868,919,499,-294,968,-2260,0,0,0
13467,-810,779,384,-475,1066,-936,0,0,0
13500,-781,777,344,-1188,1421,-78,0,0,0
13533,-827,794,362,-2231,1648,662,0,0,0
13567,-823,438,421,-2273,1736,707,0,0,0
13600,-836,469,576,-1693,1366,648,0,0,0
13633,-881,383,557,-1190,897,885,0,0,0
13667,-898,346,479,-842,651,979,0,0,0
13700,-933,402,432,-932,547,1142,0,0,0
13733,-928,355,379,-941,394,1135,0,0,0
13767,-903,315,330,-730,232,952,0,0,0
13800,-904,320,316,-483,80,769,0,0,0
13833,-896,339,299,-284,-29,657,0,0,0
13867,-895,354,278,-214,-16,594,0,0,0
13900,-898,358,277,-194,15,411,0,0,0
13933,-870,380,279,-195,35,252,0,0,0
13967,-846,391,261,-103,37,168,0,0,0
14000,-835,419,259,-95,72,143,0,0,0
14033,-839,444,280,-106,107,66,0,0,0
14067,-843,441,298,-28,98,45,0,0,0
14100,-842,454,305,54,67,-3,0,0,0
14133,-837,462,316,71,92,-14,0,0,0
14167,-837,476,332,41,93,-50,0,0,0
14200,-828,473,333,30,80,-37,0,0,0
14233,-814,473,329,64,59,-72,0,0,0
14267,-814,498,337,29,36,-70,0,0,0
14300,-820,492,332,15,-19,-80,0,0,0
14333,-824,489,321,21,-31,-33,0,0,0
14367,-824,483,308,40,-71,34,0,0,0
14400,-826,479,298,9,-70,64,0,0,0
14433,-832,479,288,49,-75,34,0,0,0
14467,-826,471,284,57,-41,-2,0,0,0
14500,-821,463,280,11,-10,40,0,0,0
14533,-826,462,283,30,2,45,0,0,0
14567,-829,470,292,54,19,-21,0,0,0
14600,-822,476,300,45,4,-12,0,0,0
14633,-827,479,309,39,-20,-23,0,0,0
14667,-830,479,315,-5,28,2,0,0,0
14700,-829,474,317,-10,26,39,0,0,0
14733,-828,472,316,-9,16,-8,0,0,0
14767,-831,476,318,-1,-20,-17,0,0,0
14800,-832,472,312,-1,-18,-17,0,0,0
14833,-831,463,305,-28,13,-27,0,0,0
14867,-828,469,303,-37,-3,-27,0,0,0
14900,-828,471,299,-55,2,-66,0,0,0
14933,-823,464,295,-9,8,-77,0,0,0
14967,-825,468,291,-9,-19,-46,0,0,0
15000,-834,478,295,-51,31,-25,0,0,0
15033,-834,473,300,-40,14,1,0,0,0
15067,-834,465,302,-52,30,22,0,0,0
15100,-831,461,300,-6,-6,35,0,0,0
15133,-829,460,304,-16,-4,45,0,0,0
15167,-834,452,302,-31,21,45,0,0,0
15200,-837,448,299,-20,21,39,0,0,0
15233,-841,449,303,-23,2,59,0,0,0
15267,-841,446,305,55,12,16,0,0,0
15300,-840,453,308,24,1,1,0,0,0
15333,-840,454,310,-9,33,2,0,0,0
15367,-834,451,309,1,22,5,0,0,0
15400,-823,450,306,3,-2,13,0,0,0
15433,-823,463,304,75,-24,-17,0,0,0
15467,-841,476,309,87,-50,28,0,0,0
15500,-854,461,300,67,-14,119,0,0,0
15533,-858,473,318,-4,29,161,0,0,0
15567,-859,457,313,-57,35,102,0,0,0
15600,-866,452,321,-62,40,16,0,0,0
15633,-856,436,322,-46,-15,-66,0,0,0
15667,-857,448,331,-84,-2,-126,0,0,0
15700,-854,441,329,-112,-38,-107,0,0,0
15733,-851,437,324,-86,-9,-174,0,0,0
15767,-835,440,328,-60,-55,-232,0,0,0
15800,-827,434,318,-67,-59,-203,0,0,0
15833,-831,429,313,-61,-74,-201,0,0,0
15867,-830,439,311,-36,-55,-196,0,0,0
15900,-828,439,308,-32,-50,-171,0,0,0
15933,-830,440,305,-39,-58,-132,0,0,0
15967,-828,435,305,-44,-41,-142,0,0,0
16000,-829,432,311,-18,-14,-46,0,0,0
16033,-830,433,312,-39,10,-49,0,0,0
16067,-836,431,317,-68,55,7,0,0,0
16100,-843,420,322,1,37,0,0,0,0
16133,-837,419,327,1,35,44,0,0,0
16167,-853,421,333,-31,63,55,0,0,0
16200,-848,410,336,-52,54,63,0,0,0
16233,-838,403,335,-50,37,101,0,0,0
16267,-847,402,330,-31,27,45,0,0,0
16300,-864,402,331,-10,5,31,0,0,0
16333,-854,402,327,-31,29,65,0,0,0
16367,-857,407,326,-54,48,25,0,0,0
16400,-862,405,325,-77,37,-16,0,0,0
16433,-858,404,319,-45,17,-62,0,0,0
16467,-861,409,316,-15,16,-115,0,0,0
16500,-861,407,308,-53,30,-96,0,0,0
16533,-853,402,305,-57,24,-100,0,0,0
16567,-837,397,296,-34,10,-56,0,0,0
16600,-838,402,288,-40,-18,-118,0,0,0
16633,-867,394,287,-64,-8,-92,0,0,0
16667,-887,394,293,-40,29,-43,0,0,0
16700,-891,404,306,-15,28,-64,0,0,0
16733,-866,403,310,-111,71,-38,0,0,0
16766,-876,407,319,-178,78,-37,0,0,0
16800,-888,389,338,-230,106,-18,0,0,0
16833,-880,370,353,-197,105,77,0,0,0
16866,-883,355,365,-204,99,180,0,0,0
16900,-896,347,373,-194,53,204,0,0,0
16933,-898,328,384,-217,5,166,0,0,0
16966,-879,309,387,-171,-22,153,0,0,0
17000,-861,298,384,-80,-59,97,0,0,0
17033,-856,309,372,-31,-72,49,0,0,0
17066,-859,313,357,-37,-81,-19,0,0,0
17100,-862,316,347,20,-88,-103,0,0,0
17133,-862,328,338,115,-105,-114,0,0,0
17166,-857,340,330,137,-75,-77,0,0,0
17200,-855,352,335,155,-89,-60,0,0,0
17233,-854,354,336,179,-53,-22,0,0,0
17266,-851,356,341,222,-61,-17,0,0,0
17300,-844,357,341,234,-87,28,0,0,0
17333,-831,352,343,234,-47,63,0,0,0
17366,-846,364,345,201,-34,-8,0,0,0
17400,-839,365,347,167,-35,-30,0,0,0
17433,-834,369,346,140,-32,-81,0,0,0
17466,-842,383,345,96,16,-99,0,0,0
17500,-890,398,353,50,51,-117,0,0,0
17533,-921,396,363,42,33,-89,0,0,0
17566,-894,389,366,138,52,-62,0,0,0
17600,-864,403,358,153,-7,24,0,0,0
17633,-846,401,355,67,10,-8,0,0,0
17666,-844,397,357,3,30,14,0,0,0
17700,-856,396,349,-1,35,20,0,0,0
17733,-873,388,336,-20,-1,45,0,0,0
17766,-883,378,336,9,-28,66,0,0,0
17800,-876,364,330,72,-43,93,0,0,0
17833,-872,359,331,65,12,100,0,0,0
17866,-868,351,330,77,-35,76,0,0,0
17900,-863,353,333,116,-33,28,0,0,0
17933,-866,357,336,100,-27,-32,0,0,0
17966,-874,361,337,124,-28,-80,0,0,0
18000,-871,365,338,103,-19,-111,0,0,0
18033,-861,371,330,111,-31,-138,0,0,0
18066,-854,376,332,96,-41,-109,0,0,0
18100,-854,375,325,119,-65,-103,0,0,0
18133,-865,380,322,166,-71,-116,0,0,0
18166,-872,385,329,163,-54,-45,0,0,0
18200,-878,391,327,151,-50,-66,0,0,0
18233,-857,391,327,117,-12,-62,0,0,0
18266,-851,392,328,71,-5,-111,0,0,0
18300,-852,381,327,42,12,-89,0,0,0
18333,-852,379,328,-3,40,-50,0,0,0
18366,-864,387,328,-10,32,-62,0,0,0
18400,-875,382,331,-9,25,-44,0,0,0
18433,-874,384,333,8,31,-63,0,0,0
18466,-868,383,326,-30,34,-14,0,0,0
18500,-864,378,325,-93,48,-29,0,0,0
18533,-879,375,323,-139,43,3,0,0,0
18566,-876,362,320,-125,25,-42,0,0,0
18600,-871,357,323,-151,-10,-45,0,0,0
18633,-875,342,332,-150,-16,23,0,0,0
18666,-881,323,343,-133,-50,97,0,0,0
18700,-882,317,351,-40,-89,73,0,0,0
18733,-888,312,358,-20,-79,64,0,0,0
18766,-871,292,352,22,-128,75,0,0,0
18800,-879,307,362,91,-72,2,0,0,0
18833,-889,317,361,87,-77,17,0,0,0
18866,-897,316,361,159,-60,-53,0,0,0
18900,-910,334,354,197,-51,-94,0,0,0
18933,-861,334,348,200,-9,-157,0,0,0
18966,-825,345,345,168,28,-117,0,0,0
19000,-808,378,350,130,78,-198,0,0,0
19033,-777,380,346,106,53,-220,0,0,0
19066,-798,394,347,72,78,-236,0,0,0
19100,-843,414,349,74,95,-208,0,0,0
19133,-873,410,343,118,65,-134,0,0,0
19166,-882,412,341,109,92,-3,0,0,0
19200,-872,404,341,25,118,144,0,0,0
19233,-830,348,322,-53,129,253,0,0,0
19266,-814,334,315,48,142,185,0,0,0
19300,-836,340,320,87,148,103,0,0,0
19333,-856,328,308,82,166,159,0,0,0
19366,-876,325,303,36,243,160,0,0,0
19400,-907,312,305,15,222,201,0,0,0
19433,-928,283,280,233,106,155,0,0,0
19466,-887,300,275,396,117,86,0,0,0
19500,-964,389,300,412,150,-30,0,0,0
19533,-971,373,271,117,100,-22,0,0,0
19566,-990,341,243,47,125,54,0,0,0
19600,-958,317,280,136,62,81,0,0,0
19633,-921,345,266,200,14,30,0,0,0
19666,-919,369,251,-2,68,-64,0,0,0
19700,-920,354,279,-148,51,-76,0,0,0
19733,-915,330,283,-38,-22,-17,0,0,0
19766,-911,361,271,77,-95,-7,0,0,0
19800,-913,377,271,20,-125,-93,0,0,0
19833,-880,376,293,49,-101,-82,0,0,0
19866,-847,411,306,95,-58,-101,0,0,0
19900,-817,446,304,-9,-15,-126,0,0,0
19933,-815,464,308,-137,-5,-170,0,0,0
19966,-828,445,314,-191,15,-200,0,0,0
20000,-801,439,305,-119,-20,-49,0,0,0
20033,-788,435,288,-156,25,113,0,0,0
20066,-823,413,277,-298,12,220,0,0,0
20100,-754,293,226,-262,-58,335,0,0,0
20133,-983,394,242,-14,-10,228,0,0,0
20166,-1152,413,265,-156,-104,348,0,0,0
20200,-1068,290,190,-210,-10,501,0,0,0
20233,-1051,285,228,-324,80,596,0,0,0
20266,-937,200,210,-138,49,446,0,0,0
20300,-855,249,211,-45,86,167,0,0,0
20333,-858,275,226,-221,173,28,0,0,0
20366,-919,300,236,-406,218,-75,0,0,0
20400,-964,291,256,-353,201,-116,0,0,0
20433,-942,286,267,-81,98,-145,0,0,0
20466,-939,330,281,24,39,-87,0,0,0
20500,-927,348,297,36,11,-53,0,0,0
20533,-895,379,318,90,3,-109,0,0,0
20566,-864,405,328,37,-67,-77,0,0,0
20600,-849,416,318,-32,-44,-90,0,0,0
20633,-868,415,323,-93,-52,-103,0,0,0
20666,-888,407,327,-102,-112,-68,0,0,0
20700,-883,391,318,-63,-130,-21,0,0,0
20733,-894,380,324,13,-117,17,0,0,0
20766,-870,362,330,54,-145,23,0,0,0
20800,-847,361,336,77,-117,-9,0,0,0
20833,-844,370,345,35,-106,-31,0,0,0
20866,-847,361,340,30,-83,-41,0,0,0
20900,-846,367,338,92,-96,-108,0,0,0
20933,-839,384,331,149,-78,-176,0,0,0
20966,-831,385,330,71,-93,-137,0,0,0
21000,-839,383,325,49,-39,-118,0,0,0
21033,-851,382,325,66,-19,-115,0,0,0
21066,-854,379,329,115,8,-109,0,0,0
21100,-833,378,328,111,25,-111,0,0,0
21133,-834,380,337,42,42,-118,0,0,0
21166,-829,375,339,4,62,-71,0,0,0
21200,-814,366,337,-9,69,-57,0,0,0
21233,-795,367,319,-1,44,-5,0,0,0
21266,-821,370,314,15,49,-6,0,0,0
21300,-784,321,297,-11,-66,99,0,0,0
21333,-835,308,243,187,22,152,0,0,0
21366,-1186,497,363,131,23,-3,0,0,0
21400,-1066,328,253,-2,-72,316,0,0,0
21433,-1016,260,243,-43,26,501,0,0,0
21466,-953,224,268,72,-10,556,0,0,0
21500,-854,251,253,163,1,244,0,0,0
21533,-831,290,268,2,94,32,0,0,0
21566,-913,304,291,-219,171,-73,0,0,0
21600,-976,286,293,-273,191,-159,0,0,0
21633,-964,255,311,-2,53,-68,0,0,0
21666,-930,298,312,210,9,-37,0,0,0
21700,-916,345,326,189,-11,-106,0,0,0
21733,-876,345,333,132,-76,-123,0,0,0
21766,-841,352,329,131,-63,-189,0,0,0
21800,-865,370,335,84,-58,-190,0,0,0
21833,-893,368,338,23,-26,-117,0,0,0
21866,-889,366,326,67,-50,-118,0,0,0
21900,-895,370,328,39,-30,-81,0,0,0
21933,-872,370,322,90,-56,-66,0,0,0
21966,-860,372,324,43,-82,-80,0,0,0
22000,-858,362,330,47,-61,-54,0,0,0
22033,-853,363,331,79,-71,-63,0,0,0
22066,-861,372,337,98,-55,-43,0,0,0
22100,-858,368,334,40,-46,-62,0,0,0
22133,-862,352,331,41,-40,-40,0,0,0
22166,-866,356,326,79,-77,-26,0,0,0
22200,-863,361,328,77,-47,-47,0,0,0
22233,-867,370,326,83,-13,-68,0,0,0
22266,-853,370,331,112,30,-93,0,0,0
22300,-839,371,332,65,44,-114,0,0,0
22333,-839,378,331,0,53,-76,0,0,0
22366,-836,377,330,-28,83,-61,0,0,0
22400,-835,368,322,-4,22,7,0,0,0
22433,-825,375,310,39,23,-16,0,0,0
22466,-838,386,317,-4,35,68,0,0,0
22500,-715,310,283,-30,-16,225,0,0,0
22533,-836,332,239,112,114,221,0,0,0
22566,-1235,501,363,77,-1,36,0,0,0
22600,-1002,334,220,42,-54,327,0,0,0
22633,-994,299,229,-208,116,636,0,0,0
22666,-989,230,238,-153,36,585,0,0,0
22700,-884,272,214,30,1,252,0,0,0
22733,-872,305,236,-170,93,141,0,0,0
22766,-954,300,262,-426,191,-1,0,0,0
22800,-983,266,264,-472,243,50,0,0,0
22833,-972,233,287,-266,176,88,0,0,0
22866,-935,248,294,-27,64,38,0,0,0
22900,-899,279,324,110,-29,-65,0,0,0
22933,-878,323,346,219,-98,-189,0,0,0
22966,-866,369,364,183,-89,-211,0,0,0
23000,-876,407,372,108,-56,-185,0,0,0
23033,-872,411,361,57,-123,-136,0,0,0
23066,-877,409,355,91,-153,-76,0,0,0
23100,-867,416,354,139,-227,-70,0,0,0
23133,-839,410,344,108,-190,-83,0,0,0
23166,-826,402,334,61,-167,-16,0,0,0
23200,-836,400,335,38,-150,-46,0,0,0
23233,-837,389,333,12,-70,-30,0,0,0
23266,-830,376,334,41,-92,-50,0,0,0
23300,-838,378,337,27,-28,-103,0,0,0
23333,-853,373,338,11,-19,-88,0,0,0
23366,-844,369,338,52,-5,-74,0,0,0
23400,-838,370,340,53,17,-89,0,0,0
23433,-848,378,340,50,13,-83,0,0,0
23466,-850,376,350,79,-4,-126,0,0,0
23500,-833,380,353,75,59,-36,0,0,0
23533,-832,368,352,44,75,-46,0,0,0
23566,-825,363,341,106,59,-7,0,0,0
23600,-814,367,333,118,22,35,0,0,0
23633,-727,324,312,80,-23,75,0,0,0
23666,-647,286,257,185,10,125,0,0,0
23700,-1138,523,343,318,119,-141,0,0,0
23733,-1152,474,322,79,-103,-42,0,0,0
23766,-907,289,164,-13,90,431,0,0,0
23800,-981,301,259,-334,178,621,0,0,0
23833,-939,199,231,-24,49,481,0,0,0
23866,-836,263,246,8,111,140,0,0,0
23900,-897,281,301,-214,200,57,0,0,0
23933,-972,278,302,-491,277,-34,0,0,0
23966,-959,224,314,-356,253,-1,0,0,0
24000,-931,246,344,6,127,-64,0,0,0
24033,-924,308,339,165,46,-134,0,0,0
24066,-920,353,351,219,-49,-174,0,0,0
24100,-909,393,370,197,-123,-192,0,0,0
24133,-892,405,358,113,-118,-153,0,0,0
24166,-882,399,349,-24,-153,-76,0,0,0
24200,-861,363,341,-46,-130,-32,0,0,0
24233,-833,348,336,42,-183,9,0,0,0
24266,-835,363,337,78,-164,-65,0,0,0
24300,-827,377,328,70,-107,-95,0,0,0
24333,-839,391,327,-26,-51,-139,0,0,0
24366,-865,385,320,-12,-51,-62,0,0,0
24400,-867,377,311,56,-36,-24,0,0,0
24433,-864,388,314,79,-45,-15,0,0,0
24466,-851,382,322,28,-27,41,0,0,0
24500,-843,364,334,-43,68,25,0,0,0
24533,-850,360,345,-9,112,8,0,0,0
24566,-853,357,355,-52,94,-20,0,0,0
24600,-852,363,357,-23,70,-37,0,0,0
24633,-848,361,354,1,63,-16,0,0,0
24666,-840,363,349,-17,76,-50,0,0,0
24700,-828,365,338,-1,66,11,0,0,0
24733,-810,360,323,6,48,54,0,0,0
24766,-829,373,305,48,34,44,0,0,0
24800,-827,360,305,2,-8,50,0,0,0
24833,-636,249,219,69,19,187,0,0,0
24866,-1120,515,309,117,227,-29,0,0,0
24900,-1320,493,321,-269,-34,77,0,0,0
24933,-1006,223,166,-292,55,609,0,0,0
24966,-956,158,210,-302,111,788,0,0,0
25000,-862,154,207,148,-22,544,0,0,0
25033,-804,257,229,77,12,181,0,0,0
25066,-885,254,276,-292,221,3,0,0,0
25100,-976,262,322,-548,277,-87,0,0,0
25133,-928,215,325,-274,202,-58,0,0,0
25166,-887,273,329,118,132,-180,0,0,0
25200,-904,361,348,223,17,-285,0,0,0
25233,-902,408,365,266,-106,-282,0,0,0
25266,-886,451,376,261,-132,-197,0,0,0
25300,-880,467,374,263,-160,-93,0,0,0
25333,-867,471,345,-59,-118,66,0,0,0
25366,-859,423,339,-85,-164,180,0,0,0
25400,-852,403,338,-53,-190,246,0,0,0
25433,-849,397,324,27,-194,257,0,0,0
25466,-839,397,320,-23,-147,229,0,0,0
25500,-846,392,325,-84,-83,269,0,0,0
25533,-855,382,325,-103,-51,250,0,0,0
25566,-848,379,330,-86,-23,247,0,0,0
25600,-846,379,337,-63,-30,188,0,0,0
25633,-842,379,346,-53,-29,109,0,0,0
25666,-834,387,350,-24,1,68,0,0,0
25700,-825,395,357,13,15,48,0,0,0
25733,-825,407,356,49,-12,35,0,0,0
25766,-825,413,349,119,-26,21,0,0,0
25800,-826,425,346,78,-36,26,0,0,0
25833,-839,428,347,31,39,54,0,0,0
25866,-840,412,340,-15,28,27,0,0,0
25900,-842,400,335,-6,33,49,0,0,0
25933,-851,401,331,45,46,36,0,0,0
25966,-856,396,331,38,-3,23,0,0,0
26000,-858,397,330,73,38,-14,0,0,0
26033,-850,402,333,48,64,-89,0,0,0
26066,-841,403,334,15,94,-105,0,0,0
26100,-848,406,335,38,28,-149,0,0,0
26133,-858,424,343,40,36,-157,0,0,0
26166,-852,429,341,-15,59,-131,0,0,0
26200,-851,427,340,-41,78,-62,0,0,0
26233,-848,427,337,-65,95,-69,0,0,0
26266,-844,422,327,-53,69,-127,0,0,0
26300,-839,419,325,-131,97,-69,0,0,0
26333,-850,423,322,-186,92,-36,0,0,0
26366,-869,411,316,-228,114,10,0,0,0
26400,-876,398,315,-208,83,46,0,0,0
26433,-862,384,311,-172,80,89,0,0,0
26466,-854,374,305,-181,108,96,0,0,0
26500,-857,366,301,-231,147,116,0,0,0
26533,-871,363,308,-233,184,57,0,0,0
26566,-874,361,311,-251,227,39,0,0,0
26600,-886,359,311,-201,186,-4,0,0,0
26633,-891,361,326,-204,156,17,0,0,0
26666,-887,363,329,-180,162,2,0,0,0
26700,-882,363,335,-159,107,25,0,0,0
26733,-887,362,338,-134,75,93,0,0,0
26766,-880,363,338,-84,55,40,0,0,0
26800,-878,365,335,-69,-5,70,0,0,0
26833,-878,353,325,-76,-6,140,0,0,0
26866,-874,352,317,-72,-26,65,0,0,0
26900,-874,354,309,-63,33,101,0,0,0
26933,-880,350,304,-44,-6,59,0,0,0
26966,-883,348,305,-38,-7,42,0,0,0
27000,-884,348,306,-42,27,31,0,0,0
27033,-876,354,314,-18,30,18,0,0,0
27066,-867,356,321,-60,43,36,0,0,0
27100,-874,359,323,-39,9,27,0,0,0
27133,-879,359,330,10,6,18,0,0,0
27166,-875,362,332,2,-12,29,0,0,0
27200,-875,364,331,7,-10,55,0,0,0
27233,-868,361,329,22,-25,40,0,0,0
27266,-863,368,327,38,-25,52,0,0,0
27300,-859,373,325,50,-32,54,0,0,0
27333,-868,382,323,23,-4,55,0,0,0
27366,-864,382,325,-27,23,89,0,0,0
27400,-863,393,329,-10,31,83,0,0,0
27433,-878,404,343,-69,51,42,0,0,0
27466,-886,393,338,-135,63,77,0,0,0
27500,-896,406,360,-220,138,69,0,0,0
27533,-895,412,365,-384,145,2,0,0,0
27566,-894,392,365,-527,208,-48,0,0,0
27600,-888,375,373,-644,217,-94,0,0,0
27633,-891,357,369,-704,191,-183,0,0,0
27666,-892,324,354,-694,145,-179,0,0,0
27700,-892,312,352,-627,97,-247,0,0,0
27733,-873,316,345,-561,61,-279,0,0,0
27766,-863,310,328,-580,48,-296,0,0,0
27800,-860,303,326,-594,97,-289,0,0,0
27833,-864,284,326,-570,32,-210,0,0,0
27866,-882,272,328,-527,115,-138,0,0,0
27900,-895,258,329,-470,66,-115,0,0,0
27933,-903,251,333,-352,51,-65,0,0,0
27966,-891,237,342,-318,31,16,0,0,0
28000,-886,224,341,-327,62,55,0,0,0
28033,-899,213,353,-309,40,99,0,0,0
28066,-899,199,355,-231,25,108,0,0,0
28100,-889,190,352,-152,2,140,0,0,0
28133,-889,188,348,-93,-24,107,0,0,0
28166,-899,187,344,-87,3,86,0,0,0
28200,-910,184,344,-42,10,68,0,0,0
28233,-914,184,343,21,-4,76,0,0,0
28266,-917,190,344,101,-33,61,0,0,0
28300,-908,195,350,128,-58,105,0,0,0
28333,-905,203,363,152,-18,70,0,0,0
28366,-892,205,365,166,-12,61,0,0,0
28400,-899,214,374,192,-15,35,0,0,0
28433,-900,224,376,200,-18,12,0,0,0
28466,-894,237,378,205,-8,-24,0,0,0
28500,-893,245,380,139,2,28,0,0,0
28533,-890,249,374,145,-16,1,0,0,0
28566,-885,254,374,171,0,29,0,0,0
28600,-884,258,366,150,-15,25,0,0,0
28633,-886,261,367,171,-8,68,0,0,0
28666,-894,264,362,147,-4,89,0,0,0
28700,-879,263,361,131,14,85,0,0,0
28733,-883,261,359,124,38,98,0,0,0
28766,-895,259,359,144,31,29,0,0,0
28800,-892,264,360,119,42,21,0,0,0
28833,-894,269,359,136,45,53,0,0,0
28866,-894,275,359,97,50,58,0,0,0
28900,-890,279,355,99,83,67,0,0,0
28933,-889,285,352,118,35,72,0,0,0
28966,-901,294,346,123,37,29,0,0,0
29000,-911,295,349,141,-3,53,0,0,0
29033,-909,293,346,128,26,89,0,0,0
29066,-896,289,342,136,17,113,0,0,0
29100,-896,286,343,116,19,49,0,0,0
29133,-897,289,348,152,14,27,0,0,0
29166,-899,296,341,122,3,39,0,0,0
29200,-897,295,337,133,18,33,0,0,0
29233,-888,299,336,152,2,46,0,0,0
29266,-875,304,327,188,13,-13,0,0,0
29300,-878,311,322,156,10,27,0,0,0
29333,-897,322,323,162,4,36,0,0,0
29366,-894,322,321,180,27,23,0,0,0
29400,-893,324,319,182,27,22,0,0,0
29433,-890,323,319,194,36,14,0,0,0
29466,-885,324,322,205,7,25,0,0,0
29500,-886,325,324,152,30,7,0,0,0
29533,-887,323,325,190,23,23,0,0,0
29566,-881,330,319,186,19,6,0,0,0
29600,-887,333,310,188,3,27,0,0,0
29633,-888,330,303,177,-18,7,0,0,0
29666,-885,331,296,161,27,62,0,0,0
29700,-891,326,305,78,-8,21,0,0,0
29733,-925,339,305,91,40,15,0,0,0
29766,-922,318,297,150,-52,-14,0,0,0
29800,-905,317,288,375,-128,15,0,0,0
29833,-900,349,272,391,-130,22,0,0,0
29866,-894,351,280,247,-95,13,0,0,0
29900,-918,328,289,243,-42,-8,0,0,0
29933,-913,338,286,304,-64,-81,0,0,0
29966,-906,322,287,361,-118,-59,0,0,0
30000,-889,333,289,385,-114,-88,0,0,0
30033,-876,337,295,284,-28,-149,0,0,0
30066,-900,330,301,252,-5,-164,0,0,0
30100,-910,339,292,292,-44,-178,0,0,0
30133,-903,339,301,292,-61,-186,0,0,0
30166,-899,337,297,343,-74,-171,0,0,0
30200,-892,336,289,355,-78,-132,0,0,0
30233,-899,338,291,336,-131,-134,0,0,0
30266,-911,358,299,374,-144,-150,0,0,0
30300,-909,367,309,372,-156,-129,0,0,0
30333,-895,359,322,329,-135,-92,0,0,0
30366,-861,376,329,302,-131,-75,0,0,0
30400,-853,392,324,159,-86,-52,0,0,0
30433,-864,350,320,72,-76,-43,0,0,0
30466,-869,350,319,131,-44,-38,0,0,0
30500,-860,354,305,89,4,-3,0,0,0
30533,-878,360,311,17,3,17,0,0,0
30566,-891,351,307,1,7,16,0,0,0
30600,-894,349,305,-40,17,53,0,0,0
30633,-897,335,303,9,40,85,0,0,0
30666,-895,329,301,-35,52,100,0,0,0
30700,-898,324,303,-49,63,90,0,0,0
30733,-897,308,302,-49,27,54,0,0,0
30766,-899,307,298,-6,31,3,0,0,0
30800,-904,309,292,-39,22,23,0,0,0
30833,-907,305,295,2,42,-7,0,0,0
30866,-907,318,292,-14,35,-40,0,0,0
30900,-896,312,291,19,23,-40,0,0,0
30933,-902,338,289,111,-42,-67,0,0,0
30966,-905,354,290,45,-46,-47,0,0,0
31000,-910,342,289,24,-49,-16,0,0,0
31033,-898,325,289,47,-22,16,0,0,0
31066,-895,347,287,19,-10,22,0,0,0
31100,-893,333,295,-6,6,14,0,0,0
31133,-890,330,305,13,29,-2,0,0,0
31166,-888,321,299,-18,22,15,0,0,0
31200,-891,319,299,-16,22,18,0,0,0
31233,-896,323,300,-22,45,10,0,0,0
31266,-899,323,296,-24,-7,-34,0,0,0
31300,-892,311,292,-9,48,-18,0,0,0
31333,-891,321,291,-20,37,-5,0,0,0
31366,-912,321,282,-23,11,38,0,0,0
31400,-908,313,290,16,10,-13,0,0,0
31433,-915,322,287,58,0,-26,0,0,0
31466,-899,338,297,78,-15,3,0,0,0
31500,-889,343,310,15,24,11,0,0,0
31533,-894,344,306,-61,15,46,0,0,0
31566,-899,324,320,-147,27,38,0,0,0
31600,-888,318,320,-56,-3,10,0,0,0
31633,-903,322,320,-6,-15,-5,0,0,0
31666,-902,323,312,-39,-20,-8,0,0,0
31700,-893,329,302,-56,-25,46,0,0,0
31733,-882,338,286,-29,-5,18,0,0,0
31766,-884,335,280,-67,11,14,0,0,0
31800,-892,335,278,-109,9,66,0,0,0
31833,-902,311,281,-120,75,113,0,0,0
31866,-893,321,280,-105,55,86,0,0,0
31900,-905,293,282,-140,88,83,0,0,0
31933,-916,277,287,-28,21,53,0,0,0
31966,-930,293,279,44,-21,15,0,0,0
32000,-917,289,282,53,31,-6,0,0,0
32033,-899,291,295,53,58,-14,0,0,0
32066,-896,307,300,83,19,-1,0,0,0
32100,-890,320,302,73,26,-45,0,0,0
32133,-895,336,314,78,-10,-54,0,0,0
32166,-901,332,311,43,-9,-1,0,0,0
32200,-897,340,310,89,-26,22,0,0,0
32233,-901,348,307,25,-34,69,0,0,0
32266,-900,336,307,51,-46,48,0,0,0
32300,-898,337,313,-4,-32,29,0,0,0
32333,-878,329,316,-48,23,46,0,0,0
32366,-872,331,311,11,-3,52,0,0,0
32400,-880,348,304,-15,-25,27,0,0,0
32433,-877,347,313,-116,31,50,0,0,0
32466,-900,336,310,-44,3,12,0,0,0
32500,-901,327,301,-67,42,79,0,0,0
32533,-893,330,304,-49,7,83,0,0,0
32566,-879,315,299,-48,22,38,0,0,0
32600,-888,324,296,-10,22,27,0,0,0
32633,-897,331,294,-31,45,21,0,0,0
32666,-892,344,293,-84,81,34,0,0,0
32700,-890,317,299,-109,59,55,0,0,0
32733,-897,319,301,-80,57,75,0,0,0
32766,-907,320,302,-67,57,50,0,0,0
32800,-903,311,306,-12,15,10,0,0,0
32833,-913,325,297,-12,37,36,0,0,0
32866,-927,323,299,-44,22,23,0,0,0
32900,-908,313,302,17,-6,53,0,0,0
32933,-899,323,294,43,-30,-16,0,0,0
32966,-904,320,301,-9,-29,-85,0,0,0
33000,-893,331,312,-22,18,-83,0,0,0
33033,-878,325,303,-9,-14,-80,0,0,0
33066,-858,312,320,27,-7,-49,0,0,0
33100,-888,347,287,16,-24,-58,0,0,0
33133,-910,345,294,-101,17,-83,0,0,0
33166,-886,313,296,-18,36,3,0,0,0
33200,-899,333,267,-95,96,92,0,0,0
33233,-920,300,287,-116,38,124,0,0,0
33266,-911,289,278,50,-22,74,0,0,0
33300,-925,301,285,90,-8,79,0,0,0
33333,-908,279,273,25,-12,114,0,0,0
33366,-875,263,275,130,41,90,0,0,0
33400,-859,304,300,226,64,-32,0,0,0
33433,-889,364,280,-4,151,-144,0,0,0
33466,-916,383,329,-237,227,-158,0,0,0
33500,-942,364,347,-320,176,-45,0,0,0
33533,-883,302,303,-58,30,163,0,0,0
33566,-917,318,303,93,-83,248,0,0,0
33600,-902,337,303,167,-148,208,0,0,0
33633,-881,320,294,151,-93,129,0,0,0
33666,-931,329,275,-100,19,130,0,0,0
33700,-927,294,278,-146,27,72,0,0,0
33733,-884,285,278,68,28,18,0,0,0
33766,-901,333,271,16,24,-46,0,0,0
33800,-917,314,293,-29,55,-119,0,0,0
33833,-912,334,312,14,75,-76,0,0,0
33866,-879,337,318,41,33,-39,0,0,0
33900,-893,344,313,13,4,-1,0,0,0
33933,-889,361,320,35,-23,-46,0,0,0
33966,-870,353,303,36,-56,9,0,0,0
34000,-879,359,281,-59,-13,80,0,0,0
34033,-891,337,270,-31,-20,87,0,0,0
34066,-914,336,257,37,-20,114,0,0,0
34100,-937,337,252,59,-75,132,0,0,0
34133,-916,306,257,117,-70,134,0,0,0
34166,-910,312,255,115,-30,115,0,0,0
34200,-913,322,270,89,66,2,0,0,0
34233,-896,324,285,49,46,-33,0,0,0
34266,-894,335,288,-5,43,-54,0,0,0
34300,-901,325,309,27,10,-62,0,0,0
34333,-883,337,306,138,-17,-83,0,0,0
34366,-899,374,294,144,-81,-54,0,0,0
34400,-906,354,303,51,-41,-31,0,0,0
34433,-884,349,298,209,-119,-43,0,0,0
34466,-881,370,285,160,-98,-43,0,0,0
34500,-872,358,293,32,-38,-29,0,0,0
34533,-876,358,302,30,3,-41,0,0,0
34566,-864,371,305,-68,32,-55,0,0,0
34600,-865,368,304,-134,40,3,0,0,0
34633,-873,350,307,-151,91,15,0,0,0
34666,-870,339,299,-122,75,93,0,0,0
34700,-900,349,297,-165,87,111,0,0,0
34733,-914,326,301,-149,65,133,0,0,0
34766,-914,317,302,-75,13,143,0,0,0
34800,-909,312,296,-72,26,113,0,0,0
34833,-907,304,291,-57,24,122,0,0,0
34866,-891,301,283,17,-6,76,0,0,0
34900,-890,308,272,18,-2,41,0,0,0
34933,-896,309,269,77,-11,31,0,0,0
34966,-918,319,271,83,-28,1,0,0,0
35000,-925,329,270,91,-7,12,0,0,0
35033,-915,325,275,104,8,-1,0,0,0
35066,-890,329,281,137,-21,-12,0,0,0
35100,-886,341,284,123,-20,-63,0,0,0
35133,-882,360,289,85,-1,-57,0,0,0
35166,-896,369,295,22,-1,-75,0,0,0
35200,-918,376,290,13,-11,-8,0,0,0
35233,-919,356,292,28,-54,7,0,0,0
35266,-892,366,286,134,-101,13,0,0,0
35300,-880,378,275,33,-89,71,0,0,0
35333,-913,345,282,-102,-105,92,0,0,0
35366,-928,341,282,-7,-133,77,0,0,0
35400,-943,352,289,-95,-134,71,0,0,0
35433,-928,340,295,-118,-118,70,0,0,0
35466,-888,324,313,-87,-112,45,0,0,0
35500,-852,329,333,-17,-124,41,0,0,0
35533,-863,374,335,72,-120,11,0,0,0
35566,-840,383,331,-23,-70,52,0,0,0
35600,-815,389,355,82,-113,65,0,0,0
35633,-828,409,345,-11,-115,86,0,0,0
35666,-857,391,332,-20,-75,136,0,0,0
35700,-850,373,333,18,-59,173,0,0,0
35733,-858,392,332,-120,32,122,0,0,0
35766,-857,343,343,-141,3,93,0,0,0
35800,-861,341,335,-15,63,97,0,0,0
35833,-858,349,357,-77,93,56,0,0,0
35866,-865,343,360,11,78,36,0,0,0
35900,-875,355,351,7,34,-28,0,0,0
35933,-892,373,351,-46,86,-17,0,0,0
35966,-888,350,362,-28,81,-58,0,0,0
36000,-885,339,358,39,73,-54,0,0,0
36033,-878,335,353,75,37,-87,0,0,0
36066,-856,320,354,85,39,-65,0,0,0
36100,-849,320,349,145,-33,-155,0,0,0
36133,-876,339,342,119,8,-168,0,0,0
36166,-882,342,350,92,40,-151,0,0,0
36200,-863,340,350,137,56,-142,0,0,0
36233,-858,354,348,87,68,-153,0,0,0
36266,-867,361,345,42,79,-155,0,0,0
36300,-877,363,340,0,49,-141,0,0,0
36333,-879,358,325,41,31,-72,0,0,0
36366,-900,368,310,13,-2,-20,0,0,0
36400,-902,362,303,34,-16,36,0,0,0
36433,-907,339,295,25,-22,100,0,0,0
36466,-909,340,291,39,-15,111,0,0,0
36500,-878,324,292,-11,-34,124,0,0,0
36533,-856,313,284,-91,-23,144,0,0,0
36566,-852,302,287,-73,-23,65,0,0,0
36600,-913,346,281,-20,-47,-27,0,0,0
36633,-953,384,279,-113,-68,-45,0,0,0
36666,-966,371,293,-96,-25,1,0,0,0
36700,-929,371,278,48,-106,82,0,0,0
36733,-885,375,258,-6,-124,88,0,0,0
36766,-942,374,253,139,-157,53,0,0,0
36800,-930,393,244,200,-103,-6,0,0,0
36833,-845,398,260,57,35,51,0,0,0
36866,-825,383,278,-56,114,67,0,0,0
36900,-839,378,293,-52,124,112,0,0,0
36933,-858,379,301,-61,60,105,0,0,0
36966,-877,343,331,-64,57,178,0,0,0
37000,-886,329,322,48,80,210,0,0,0
37033,-869,311,322,55,112,174,0,0,0
37066,-842,314,337,76,68,97,0,0,0
37100,-846,312,337,19,60,53,0,0,0
37133,-882,306,344,37,65,6,0,0,0
37166,-891,345,345,71,65,-79,0,0,0
37200,-881,362,348,11,67,-89,0,0,0
37233,-882,377,347,25,61,-121,0,0,0
37266,-878,392,354,77,26,-130,0,0,0
37300,-861,407,343,58,-13,-100,0,0,0
37333,-853,416,339,-40,23,-37,0,0,0
37366,-865,421,334,-125,23,16,0,0,0
37400,-862,407,325,-167,13,74,0,0,0
37433,-866,396,320,-131,3,98,0,0,0
37466,-854,384,319,-108,-5,115,0,0,0
37500,-863,381,305,-153,-12,217,0,0,0
37533,-882,349,301,-152,54,192,0,0,0
37566,-877,342,292,-150,73,204,0,0,0
37600,-886,320,286,-152,77,156,0,0,0
37633,-895,329,296,-34,26,87,0,0,0
37666,-880,337,293,0,42,64,0,0,0
37700,-870,366,302,18,5,51,0,0,0
37733,-881,363,302,-46,45,42,0,0,0
37766,-875,364,308,10,-1,40,0,0,0
37800,-863,331,323,57,-5,10,0,0,0
37833,-886,360,312,86,9,53,0,0,0
37866,-898,362,309,63,-30,9,0,0,0
37900,-893,384,313,142,-31,-10,0,0,0
37933,-857,396,305,207,-81,-55,0,0,0
37966,-852,425,307,207,-48,-18,0,0,0
38000,-861,433,304,105,-43,22,0,0,0
38033,-870,424,303,113,-35,68,0,0,0
38066,-864,427,296,138,-51,104,0,0,0
38100,-853,426,294,68,-10,149,0,0,0
38133,-847,401,295,-32,26,156,0,0,0
38166,-862,377,292,-88,113,128,0,0,0
38200,-878,372,302,-95,107,105,0,0,0
38233,-885,360,306,-96,133,71,0,0,0
38266,-891,356,306,-67,79,10,0,0,0
38300,-884,362,313,-24,67,-20,0,0,0
38333,-891,368,310,-20,88,-13,0,0,0
38366,-881,388,320,26,41,-31,0,0,0
38400,-870,379,317,22,17,-31,0,0,0
38433,-854,418,310,68,-2,-22,0,0,0
38466,-860,425,304,-9,29,-59,0,0,0
38500,-866,418,306,-56,22,3,0,0,0
38533,-857,434,298,-70,52,-2,0,0,0
38566,-858,424,302,-106,67,-16,0,0,0
38600,-879,430,285,-108,33,-18,0,0,0
38633,-888,408,284,-153,90,-15,0,0,0
38666,-865,408,289,-105,77,70,0,0,0
38700,-842,388,278,-123,109,100,0,0,0
38733,-851,380,284,-170,106,117,0,0,0
38766,-871,368,285,-138,110,32,0,0,0
38800,-878,363,285,-94,92,4,0,0,0
38833,-884,368,284,-128,157,71,0,0,0
38866,-887,343,286,-92,134,52,0,0,0
38900,-899,355,284,-83,123,17,0,0,0
38933,-892,350,274,-56,98,7,0,0,0
38966,-901,335,259,-79,104,-4,0,0,0
39000,-931,337,256,-12,89,-26,0,0,0
39033,-917,345,255,-4,128,-75,0,0,0
39066,-908,338,266,27,86,-84,0,0,0
39100,-909,336,273,125,25,-78,0,0,0
39133,-896,348,300,214,-86,-133,0,0,0
39166,-905,398,297,233,-25,-85,0,0,0
39200,-867,386,304,104,-24,-106,0,0,0
39233,-876,377,309,1,25,-108,0,0,0
39266,-885,388,280,-121,34,-104,0,0,0
39300,-901,366,288,-62,24,-104,0,0,0
39333,-890,374,269,74,-7,-96,0,0,0
39366,-849,422,269,63,-9,-18,0,0,0
39400,-876,409,267,-80,38,69,0,0,0
39433,-884,384,284,-49,21,64,0,0,0
39466,-868,383,285,-32,-1,98,0,0,0
39500,-885,386,279,-167,55,145,0,0,0
39533,-899,361,278,-142,57,130,0,0,0
39566,-888,352,279,-95,43,137,0,0,0
39600,-882,349,271,-58,24,145,0,0,0
39633,-893,345,270,-80,25,139,0,0,0
39666,-897,335,271,-74,39,122,0,0,0
39700,-903,340,273,-67,38,75,0,0,0
39733,-906,336,271,-13,8,87,0,0,0
39766,-899,347,277,47,3,-12,0,0,0
39800,-890,362,275,68,17,7,0,0,0
39833,-887,373,278,26,25,-87,0,0,0
39866,-892,377,272,-10,23,-23,0,0,0
39900,-895,374,272,-6,33,-9,0,0,0
39933,-880,375,276,-23,1,16,0,0,0
39966,-905,355,266,22,-2,-12,0,0,0
40000,-911,356,264,37,-4,-22,0,0,0
40033,-903,359,268,22,13,-72,0,0,0
40066,-897,345,271,50,-19,-113,0,0,0
40100,-895,378,287,137,-75,-174,0,0,0
40133,-880,383,288,138,-131,-155,0,0,0
40166,-867,387,290,123,-84,-37,0,0,0
40200,-861,382,292,152,-89,35,0,0,0
40233,-863,391,288,170,-98,67,0,0,0
40266,-861,398,279,136,-52,57,0,0,0
40300,-864,399,269,-15,1,101,0,0,0
40333,-880,375,261,-142,80,172,0,0,0
40366,-905,359,260,-72,87,136,0,0,0
40400,-914,353,251,-11,40,109,0,0,0
40433,-895,353,252,37,20,153,0,0,0
40466,-901,337,257,71,29,135,0,0,0
40500,-905,338,263,101,22,88,0,0,0
40533,-897,350,279,137,5,-15,0,0,0
40566,-895,356,283,63,17,-54,0,0,0
40600,-907,374,287,66,16,-81,0,0,0
40633,-899,385,293,6,25,-102,0,0,0
40666,-891,377,286,-18,4,-72,0,0,0
40700,-885,390,287,3,-23,-38,0,0,0
40733,-878,401,275,-28,-30,-21,0,0,0
40766,-882,395,273,-31,-22,2,0,0,0
40800,-861,422,272,-38,-44,3,0,0,0
40833,-884,376,255,-154,26,106,0,0,0
40866,-875,364,264,-60,-54,138,0,0,0
40900,-875,366,242,-62,-1,127,0,0,0
40933,-896,358,245,-38,-28,106,0,0,0
40966,-901,346,249,40,-25,83,0,0,0
41000,-892,343,244,-13,-1,109,0,0,0
41033,-905,327,257,9,34,64,0,0,0
41066,-899,343,280,104,34,-30,0,0,0
41100,-897,369,285,88,21,-93,0,0,0
41133,-887,377,304,71,34,-99,0,0,0
41166,-881,383,307,63,-25,-58,0,0,0
41200,-870,411,298,22,-36,-32,0,0,0
41233,-878,370,284,-55,-20,12,0,0,0
41266,-912,390,288,44,-83,-21,0,0,0
41300,-875,389,269,59,-89,20,0,0,0
41333,-870,364,270,-23,-27,58,0,0,0
41366,-884,357,278,3,-57,80,0,0,0
41400,-891,368,301,101,-66,3,0,0,0
41433,-878,387,302,133,-48,-51,0,0,0
41466,-861,428,305,42,-13,1,0,0,0
41500,-837,414,317,-21,7,-3,0,0,0
41533,-854,420,300,-42,28,25,0,0,0
41566,-848,424,293,-92,23,83,0,0,0
41600,-862,407,279,-112,14,101,0,0,0
41633,-872,408,270,-194,56,143,0,0,0
41666,-875,380,263,-249,73,182,0,0,0
41700,-890,342,268,-217,92,175,0,0,0
41733,-894,333,272,-117,44,182,0,0,0
41766,-914,340,276,-85,50,135,0,0,0
41800,-919,329,287,18,40,17,0,0,0
41833,-909,345,316,110,32,-27,0,0,0
41866,-882,374,326,159,-8,-49,0,0,0
41900,-864,392,325,150,-69,-27,0,0,0
41933,-882,407,314,177,-103,-33,0,0,0
41966,-833,475,302,136,-123,-72,0,0,0
42000,-828,364,322,-76,-67,31,0,0,0
42033,-885,394,293,74,-94,-8,0,0,0
42066,-887,414,277,87,-85,-68,0,0,0
42100,-871,439,259,-46,-5,-44,0,0,0
42133,-873,372,270,-145,76,60,0,0,0
42166,-891,356,275,-66,50,111,0,0,0
42200,-898,351,277,6,-1,85,0,0,0
42233,-892,344,286,51,2,85,0,0,0
42266,-891,337,296,78,0,33,0,0,0
42300,-886,332,308,104,3,-44,0,0,0
42333,-887,345,306,87,4,-95,0,0,0
42366,-889,355,305,108,-29,-158,0,0,0
42400,-884,363,310,92,-35,-165,0,0,0
42433,-874,384,305,146,-66,-173,0,0,0
42466,-879,402,303,117,-84,-150,0,0,0
42500,-868,401,300,64,-41,-106,0,0,0
42533,-857,402,296,85,-66,-68,0,0,0
42566,-861,407,309,13,-36,-5,0,0,0
42600,-862,393,298,10,-43,3,0,0,0
42633,-864,383,300,-46,-18,27,0,0,0
42666,-868,372,292,-76,-13,68,0,0,0
42700,-869,368,289,-46,27,14,0,0,0
42733,-880,366,283,-59,58,51,0,0,0
42766,-884,360,284,-49,45,54,0,0,0
42800,-879,353,287,-32,28,22,0,0,0
42833,-892,347,284,-44,33,88,0,0,0
42866,-901,356,290,-11,21,90,0,0,0
42900,-892,356,299,11,43,30,0,0,0
42933,-888,346,301,28,10,14,0,0,0
42966,-885,353,317,85,-10,-7,0,0,0
43000,-878,373,316,78,-7,10,0,0,0
43033,-881,378,312,-31,18,-21,0,0,0
43066,-882,362,310,-2,4,6,0,0,0
43100,-876,371,297,64,-31,-35,0,0,0
43133,-878,384,286,39,-19,-42,0,0,0
43166,-887,383,287,15,-31,-40,0,0,0
43200,-879,381,285,8,24,23,0,0,0
43233,-871,373,292,-11,-15,53,0,0,0
43266,-879,366,287,-41,-8,64,0,0,0
43300,-900,349,295,-38,-12,36,0,0,0
43333,-891,352,302,-18,30,-39,0,0,0
43366,-872,347,306,-2,37,5,0,0,0
43400,-889,336,299,-24,26,-23,0,0,0
43433,-898,370,290,85,-33,-55,0,0,0
43466,-876,373,297,41,32,-10,0,0,0
43500,-882,365,289,-10,52,14,0,0,0
43533,-880,360,292,38,33,10,0,0,0
43566,-868,378,287,51,17,29,0,0,0
43600,-871,381,292,10,23,-10,0,0,0
43633,-885,373,298,5,23,12,0,0,0
43666,-895,370,294,-67,46,2,0,0,0
43700,-888,351,298,-58,34,64,0,0,0
43733,-897,345,296,11,26,30,0,0,0
43766,-891,355,296,49,0,-16,0,0,0
43800,-876,356,297,30,0,-18,0,0,0
43833,-883,367,296,45,3,6,0,0,0
43866,-887,374,299,1,15,-19,0,0,0
43900,-869,377,301,17,-26,14,0,0,0
43933,-874,382,290,6,-12,46,0,0,0
43966,-871,379,291,-34,-10,25,0,0,0
44000,-877,372,285,-42,24,47,0,0,0
44033,-884,365,290,-53,-10,29,0,0,0
44066,-888,360,289,-26,-6,76,0,0,0
44100,-888,356,285,-11,6,76,0,0,0
44133,-885,348,291,-10,5,40,0,0,0
44166,-886,341,286,-29,51,25,0,0,0
44200,-896,342,287,28,60,49,0,0,0
44233,-887,354,293,34,35,64,0,0,0
44266,-896,352,299,15,27,18,0,0,0
44300,-897,359,303,26,18,-1,0,0,0
44333,-900,344,302,-3,22,18,0,0,0
44366,-910,346,285,14,51,-39,0,0,0
44400,-898,361,277,-31,74,-108,0,0,0
44433,-901,349,276,-9,63,-101,0,0,0
44466,-900,360,288,80,-38,-115,0,0,0
44500,-877,375,286,55,28,-18,0,0,0
44533,-878,366,299,-41,13,-33,0,0,0
44566,-876,357,307,-16,8,-22,0,0,0
44600,-871,372,306,39,2,-70,0,0,0
44633,-863,393,311,14,-21,-74,0,0,0
44666,-851,387,321,-10,23,7,0,0,0
44700,-853,415,306,-25,-5,2,0,0,0
44733,-851,424,293,-127,5,87,0,0,0
44766,-872,384,287,-272,29,159,0,0,0
44800,-914,323,272,-197,92,161,0,0,0
44833,-903,357,261,18,38,126,0,0,0
44866,-872,369,243,-1,43,131,0,0,0
44900,-890,360,242,-88,61,236,0,0,0
44933,-898,341,255,-6,37,246,0,0,0
44966,-925,331,252,-13,74,244,0,0,0
45000,-934,315,273,-87,108,228,0,0,0
45033,-917,286,287,-57,115,136,0,0,0
45066,-905,284,295,47,59,5,0,0,0
45100,-900,307,296,199,-16,-123,0,0,0
45133,-903,348,294,255,-43,-126,0,0,0
45166,-908,359,286,239,-96,-135,0,0,0
45200,-896,386,284,209,-75,-123,0,0,0
45233,-891,381,279,165,-103,-124,0,0,0
45266,-892,391,278,184,-104,-146,0,0,0
45300,-883,406,279,136,-93,-120,0,0,0
45333,-867,396,283,49,-43,-100,0,0,0
45366,-871,393,288,58,-30,-83,0,0,0
45400,-877,401,289,43,-63,-44,0,0,0
45433,-872,402,286,19,-27,-15,0,0,0
45466,-866,383,288,0,-47,12,0,0,0
45500,-873,375,280,-11,0,77,0,0,0
45533,-880,375,276,-17,2,61,0,0,0
45566,-875,359,285,-48,14,81,0,0,0
45600,-885,352,282,21,22,60,0,0,0
45633,-883,390,275,15,0,55,0,0,0
45666,-878,389,282,-61,59,67,0,0,0
45700,-860,398,294,-78,55,43,0,0,0
45733,-870,393,312,-16,30,41,0,0,0
45766,-873,438,276,-11,21,81,0,0,0
45800,-870,404,293,-257,91,92,0,0,0
45833,-893,316,293,-134,89,150,0,0,0
45866,-878,403,274,7,56,20,0,0,0
45900,-861,396,270,-212,109,67,0,0,0
45933,-909,353,267,-276,113,148,0,0,0
45966,-894,366,286,-16,78,63,0,0,0
46000,-877,362,263,-103,103,84,0,0,0
46033,-914,353,277,-133,71,75,0,0,0
46066,-900,344,288,-21,41,19,0,0,0
46100,-895,359,286,1,65,6,0,0,0
46133,-901,368,298,53,3,-33,0,0,0
46166,-892,379,301,-38,11,15,0,0,0
46200,-863,367,302,-62,44,36,0,0,0
46233,-877,371,277,-13,-20,29,0,0,0
46266,-912,356,269,-136,-5,8,0,0,0
46300,-896,350,281,49,-36,-1,0,0,0
46333,-897,364,250,85,-26,16,0,0,0
46366,-908,395,267,21,-38,-14,0,0,0
46400,-848,359,287,-6,27,17,0,0,0
46433,-897,369,287,16,27,4,0,0,0
46466,-882,374,302,-62,44,-110,0,0,0
46500,-873,395,304,-106,111,-94,0,0,0
46533,-870,388,310,-257,142,-84,0,0,0
46566,-891,369,312,-283,106,-4,0,0,0
46600,-907,365,306,-167,32,-30,0,0,0
46633,-909,353,309,-113,-5,-3,0,0,0
46666,-900,341,287,-166,-15,48,0,0,0
46700,-891,310,306,-127,-29,41,0,0,0
46733,-887,319,285,-11,-54,37,0,0,0
46766,-890,315,284,-38,-82,2,0,0,0
46800,-907,302,279,-20,-43,-20,0,0,0
46833,-918,319,278,98,-44,-106,0,0,0
46866,-892,339,263,41,-7,-91,0,0,0
46900,-895,331,258,-45,34,-61,0,0,0
46933,-883,297,260,-129,63,-110,0,0,0
46966,-878,293,272,73,56,-158,0,0,0
47000,-886,331,263,65,119,-138,0,0,0
47033,-909,316,287,-118,140,-80,0,0,0
47066,-915,283,339,90,80,-112,0,0,0
47100,-902,320,318,181,41,-140,0,0,0
47133,-884,307,329,250,-64,-137,0,0,0
47166,-849,335,313,433,-148,-160,0,0,0
47200,-866,370,313,520,-211,-126,0,0,0
47233,-877,399,299,646,-266,-60,0,0,0
47266,-889,453,297,586,-259,40,0,0,0
47300,-896,420,243,230,-167,230,0,0,0
47333,-923,374,251,-61,-75,301,0,0,0
47366,-881,339,234,108,-7,270,0,0,0
47400,-894,358,224,-18,108,248,0,0,0
47433,-907,333,228,-182,153,213,0,0,0
47466,-903,302,252,-148,219,186,0,0,0
47500,-912,311,273,-130,259,121,0,0,0
47533,-926,304,297,-142,232,48,0,0,0
47566,-920,314,319,9,158,3,0,0,0
47600,-906,342,322,83,70,-73,0,0,0
47633,-896,351,322,15,24,-54,0,0,0
47666,-906,363,305,13,-19,-29,0,0,0
47700,-912,365,286,-19,-7,-49,0,0,0
47733,-901,359,271,-12,-42,-50,0,0,0
47766,-898,367,257,9,-63,-61,0,0,0
47800,-898,376,250,-25,-39,-68,0,0,0
47833,-886,366,250,-97,0,-7,0,0,0
47866,-892,361,253,-101,74,9,0,0,0
47900,-884,349,264,-109,61,32,0,0,0
47933,-893,351,276,-77,75,24,0,0,0
47966,-902,346,283,-90,37,3,0,0,0
48000,-900,341,289,-61,27,62,0,0,0
48033,-904,339,283,-34,2,67,0,0,0
48066,-912,342,279,0,14,64,0,0,0
48100,-913,340,277,42,-51,79,0,0,0
48133,-910,337,277,94,-63,72,0,0,0
48166,-898,337,263,60,-45,111,0,0,0
48200,-892,334,275,79,-72,70,0,0,0
48233,-883,336,267,128,-89,28,0,0,0
48266,-885,347,261,93,-38,-13,0,0,0
48300,-885,345,262,24,24,-37,0,0,0
48333,-908,349,268,-64,78,-47,0,0,0
48366,-920,346,281,-121,83,-69,0,0,0
48400,-908,346,298,-31,16,-93,0,0,0
48433,-875,353,302,62,-35,-62,0,0,0
48466,-887,352,305,90,-68,16,0,0,0
48500,-892,363,298,99,-55,6,0,0,0
48533,-880,364,297,-10,-21,-48,0,0,0
48566,-869,356,315,-33,-11,-10,0,0,0
48600,-857,340,307,17,-60,-18,0,0,0
48633,-884,368,275,65,-58,-66,0,0,0
48666,-882,395,275,-62,38,-105,0,0,0
48700,-869,392,275,-106,27,-50,0,0,0
48733,-885,370,272,-162,58,101,0,0,0
48766,-917,356,252,-73,7,152,0,0,0
48800,-912,345,266,12,-22,153,0,0,0
48833,-905,344,266,58,-5,238,0,0,0
48866,-899,334,270,-20,45,213,0,0,0
48900,-904,308,280,66,19,192,0,0,0
48933,-891,315,290,164,-31,64,0,0,0
48966,-888,323,298,173,-36,12,0,0,0
49000,-886,347,303,99,8,-7,0,0,0
49033,-876,352,306,64,39,-50,0,0,0
49066,-876,351,303,36,16,-82,0,0,0
49100,-863,364,293,96,-23,-113,0,0,0
49133,-892,392,285,50,-7,-155,0,0,0
49166,-889,390,286,39,1,-69,0,0,0
49200,-870,385,273,121,-12,-29,0,0,0
49233,-904,425,257,-14,-4,73,0,0,0
49266,-904,390,264,-170,37,113,0,0,0
49300,-902,344,268,-176,67,170,0,0,0
49333,-901,325,262,-85,96,116,0,0,0
49366,-907,336,272,17,29,40,0,0,0
49400,-904,346,276,-27,50,-6,0,0,0
49433,-924,332,286,-147,86,28,0,0,0
49466,-931,302,300,-157,82,49,0,0,0
49500,-917,273,306,22,45,-37,0,0,0
49533,-892,306,302,124,-42,-128,0,0,0
49566,-882,346,303,135,-68,-184,0,0,0
49600,-878,357,294,151,-91,-195,0,0,0
49633,-888,377,280,56,-62,-187,0,0,0
49666,-876,378,274,-10,-84,-64,0,0,0
49700,-889,348,265,-31,-34,-2,0,0,0
49733,-895,362,258,69,-69,1,0,0,0
49766,-882,377,254,111,-72,5,0,0,0
49800,-880,379,254,57,-11,58,0,0,0
49833,-886,366,254,28,-39,135,0,0,0
49866,-910,347,251,-35,-9,181,0,0,0
49900,-914,328,265,6,26,188,0,0,0
49933,-894,317,269,147,-7,109,0,0,0
49966,-887,327,271,67,49,82,0,0,0
50000,-902,326,295,37,44,22,0,0,0
50033,-905,329,299,76,24,-45,0,0,0
50066,-895,364,303,87,18,-41,0,0,0
50099,-880,374,310,-12,49,-20,0,0,0
50133,-889,367,299,-44,34,-35,0,0,0
50166,-898,360,288,-55,17,-16,0,0,0
50199,-896,358,274,0,-21,-23,0,0,0
50233,-887,358,260,22,-30,27,0,0,0
50266,-885,360,246,22,-17,-20,0,0,0
50299,-906,343,250,30,-17,-17,0,0,0
50333,-906,344,250,99,3,-33,0,0,0
50366,-898,365,251,68,44,-75,0,0,0
50399,-899,375,268,32,71,-79,0,0,0
50433,-883,364,280,57,68,-104,0,0,0
50466,-881,367,298,53,43,-41,0,0,0
50499,-883,371,299,28,28,-39,0,0,0
50533,-889,363,298,-11,28,5,0,0,0
50566,-914,354,282,-13,-29,36,0,0,0
50599,-927,341,273,8,-103,57,0,0,0
50633,-913,311,260,86,-90,80,0,0,0
50666,-906,310,263,114,-69,78,0,0,0
50699,-894,289,265,155,-87,74,0,0,0
50733,-895,311,270,291,-82,-55,0,0,0
50766,-878,356,276,283,-89,-134,0,0,0
50799,-884,394,275,134,-8,-136,0,0,0
50833,-886,397,294,-18,86,-73,0,0,0
50866,-881,395,298,-134,104,12,0,0,0
50899,-896,373,285,-239,110,78,0,0,0
50933,-901,340,280,-223,94,82,0,0,0
50966,-904,324,275,-210,45,86,0,0,0
50999,-907,320,267,-186,54,105,0,0,0
51033,-926,296,266,-190,48,71,0,0,0
51066,-924,280,268,-61,-3,53,0,0,0
51099,-908,299,259,133,-22,-39,0,0,0
51133,-891,322,260,131,-51,-68,0,0,0
51166,-885,336,264,70,24,-28,0,0,0
51199,-910,351,265,15,16,-47,0,0,0
51233,-900,356,269,-32,76,-30,0,0,0
51266,-887,358,270,-45,58,-45,0,0,0
51299,-877,357,267,-56,84,-2,0,0,0
51333,-896,359,268,-91,61,-50,0,0,0
51366,-895,347,263,-112,39,102,0,0,0
51399,-915,347,260,-130,66,133,0,0,0
51433,-912,316,257,-124,64,137,0,0,0
51466,-901,304,264,-67,59,94,0,0,0
51499,-913,328,264,-10,75,38,0,0,0
51533,-921,361,261,-37,76,-17,0,0,0
51566,-895,346,268,-154,72,91,0,0,0
51599,-930,321,271,-125,94,116,0,0,0
51633,-903,322,271,-106,51,58,0,0,0
51666,-888,307,278,-130,52,24,0,0,0
51699,-933,301,262,-32,14,70,0,0,0
51733,-927,323,262,76,-42,-1,0,0,0
51766,-924,350,261,55,-25,-15,0,0,0
51799,-898,348,264,7,8,-9,0,0,0
51833,-873,330,268,-19,23,47,0,0,0
51866,-903,324,258,-54,-31,53,0,0,0
51899,-919,329,254,61,-46,-7,0,0,0
51933,-912,350,253,108,-16,-14,0,0,0
51966,-902,357,256,19,0,-22,0,0,0
51999,-914,349,274,38,1,10,0,0,0
52033,-875,363,294,106,-29,-1,0,0,0
52066,-903,376,270,-4,30,57,0,0,0
52099,-841,377,288,-141,-21,36,0,0,0
52133,-886,325,265,-160,79,105,0,0,0
52166,-921,351,269,-133,8,47,0,0,0
52199,-929,334,258,-18,-5,116,0,0,0
52233,-938,342,272,22,-18,126,0,0,0
52266,-885,375,281,138,-71,57,0,0,0
52299,-871,385,265,16,-38,73,0,0,0
52333,-860,352,274,-239,33,153,0,0,0
52366,-917,360,281,-184,50,71,0,0,0
52399,-915,358,273,-149,46,56,0,0,0
52433,-916,375,274,-316,59,49,0,0,0
52466,-943,314,320,-101,-33,113,0,0,0
52499,-901,328,298,37,-79,115,0,0,0
52533,-874,340,295,-120,-92,193,0,0,0
52566,-939,276,301,-29,-154,155,0,0,0
52599,-880,308,295,371,-189,-41,0,0,0
52633,-839,381,282,285,-131,-98,0,0,0
52666,-849,364,290,-105,-36,18,0,0,0
52699,-905,318,285,-137,-9,61,0,0,0
52733,-930,315,266,135,-72,0,0,0,0
52766,-887,339,267,184,-42,-89,0,0,0
52799,-882,347,269,134,47,-81,0,0,0
52833,-900,365,288,113,70,-100,0,0,0
52866,-871,380,278,33,69,-66,0,0,0
52899,-870,364,312,-90,98,30,0,0,0
52933,-895,327,302,82,34,-20,0,0,0
52966,-893,360,307,100,24,-37,0,0,0
52999,-884,354,316,53,18,15,0,0,0
53033,-876,345,313,48,-17,21,0,0,0
53066,-881,343,312,87,-29,63,0,0,0
53099,-892,342,310,104,-74,40,0,0,0
53133,-921,341,305,183,-91,18,0,0,0
53166,-890,371,298,163,-41,-48,0,0,0
53199,-863,392,286,0,-8,-18,0,0,0
53233,-852,379,278,-204,92,59,0,0,0
53266,-869,348,280,-164,74,54,0,0,0
53299,-903,346,265,-99,52,42,0,0,0
53333,-911,358,267,-57,14,86,0,0,0
53366,-893,352,258,-87,68,123,0,0,0
53399,-901,323,261,-134,95,170,0,0,0
53433,-915,318,269,32,79,71,0,0,0
53466,-905,351,273,129,72,-21,0,0,0
53499,-877,371,289,-42,126,31,0,0,0
53533,-884,349,296,-105,110,65,0,0,0
53566,-908,354,311,-50,90,17,0,0,0
53599,-913,378,303,18,53,-24,0,0,0
53633,-889,379,306,-33,27,2,0,0,0
53666,-887,358,303,-138,59,71,0,0,0
53699,-899,351,298,-72,8,68,0,0,0
53733,-908,366,296,28,-50,-12,0,0,0
53766,-870,381,293,-11,-68,-6,0,0,0
53799,-856,368,278,-125,-54,46,0,0,0
53833,-880,337,274,-167,2,40,0,0,0
53866,-882,342,271,-87,22,32,0,0,0
53899,-872,379,258,-109,35,-10,0,0,0
53933,-870,380,260,-273,141,0,0,0,0
53966,-862,358,258,-280,151,86,0,0,0
53999,-867,359,265,-199,185,63,0,0,0
54033,-875,380,264,-142,129,38,0,0,0
54066,-888,391,269,-132,126,71,0,0,0
54099,-885,413,274,-118,119,91,0,0,0
54133,-886,408,275,-100,80,168,0,0,0
54166,-896,410,279,-122,95,297,0,0,0
54199,-888,406,285,-158,77,326,0,0,0
54233,-904,398,288,-219,110,355,0,0,0
54266,-909,369,298,-252,54,299,0,0,0
54299,-915,360,301,-182,20,287,0,0,0
54333,-899,360,289,-189,61,255,0,0,0
54366,-890,364,283,-229,40,238,0,0,0
54399,-872,366,272,-262,90,183,0,0,0
54433,-891,370,264,-245,66,123,0,0,0
54466,-892,352,259,-232,74,122,0,0,0
54499,-895,349,254,-228,101,114,0,0,0
54533,-902,337,252,-90,53,36,0,0,0
54566,-904,344,249,-18,54,-41,0,0,0
54599,-913,349,244,-20,50,-39,0,0,0
54633,-927,337,255,-28,73,-64,0,0,0
54666,-904,325,261,33,73,-56,0,0,0
54699,-896,314,263,62,66,-75,0,0,0
54733,-908,322,273,160,35,-155,0,0,0
54766,-916,339,272,118,57,-193,0,0,0
54799,-930,362,273,95,48,-269,0,0,0
54833,-918,347,285,-13,84,-251,0,0,0
54866,-903,336,309,76,71,-267,0,0,0
54899,-866,368,308,220,-35,-274,0,0,0
54933,-844,398,315,150,-21,-310,0,0,0
54966,-853,401,303,25,-32,-199,0,0,0
54999,-874,376,294,7,-76,-109,0,0,0
55033,-890,367,273,80,-116,-27,0,0,0
55066,-890,365,256,155,-135,75,0,0,0
55099,-890,361,241,169,-146,109,0,0,0
55133,-893,343,224,135,-122,186,0,0,0
55166,-904,330,219,116,-33,201,0,0,0
55199,-910,324,219,155,52,175,0,0,0
55233,-899,332,226,148,124,67,0,0,0
55266,-897,325,242,117,125,-14,0,0,0
55299,-907,335,265,163,150,-61,0,0,0
55333,-894,348,285,113,144,-86,0,0,0
55366,-898,361,297,14,136,-51,0,0,0
55399,-907,376,319,21,116,-85,0,0,0
55433,-893,346,297,-11,32,-37,0,0,0
55466,-905,352,283,-65,10,14,0,0,0
55499,-929,336,248,-58,-49,16,0,0,0
55533,-947,338,238,158,-140,-49,0,0,0
55566,-914,364,211,343,-172,-41,0,0,0
55599,-909,390,201,208,-129,52,0,0,0
55633,-926,369,206,117,-94,80,0,0,0
55666,-922,337,215,141,-40,49,0,0,0
55699,-890,338,237,234,9,-7,0,0,0
55733,-858,352,259,198,3,-54,0,0,0
55766,-880,359,276,129,-37,-88,0,0,0
55799,-907,367,279,131,-108,-66,0,0,0
55833,-916,377,272,78,-67,-24,0,0,0
55866,-909,370,259,40,-44,3,0,0,0
55899,-897,358,251,61,-82,1,0,0,0
55933,-892,362,247,124,-103,3,0,0,0
55966,-896,368,249,84,-50,-27,0,0,0
55999,-893,366,257,47,-5,-12,0,0,0
56033,-888,366,264,-14,40,-10,0,0,0
56066,-885,367,272,-48,19,-16,0,0,0
56099,-882,363,271,-94,12,-36,0,0,0
56133,-890,351,268,-108,10,-18,0,0,0
56166,-893,344,264,-80,22,16,0,0,0
56199,-884,348,257,-20,2,96,0,0,0
56233,-874,349,246,-11,39,105,0,0,0
56266,-887,337,239,-11,34,135,0,0,0
56299,-895,345,243,33,95,111,0,0,0
56333,-895,346,244,-29,103,61,0,0,0
56366,-902,345,250,-21,117,72,0,0,0
56399,-913,354,250,31,107,54,0,0,0
56433,-917,359,251,27,75,69,0,0,0
56466,-924,368,259,38,71,65,0,0,0
56499,-920,375,266,29,71,3,0,0,0
56533,-907,369,270,32,33,16,0,0,0
56566,-890,376,278,40,7,24,0,0,0
56599,-881,392,274,36,-36,-2,0,0,0
56633,-893,401,266,-105,7,-13,0,0,0
56666,-900,392,267,-105,22,6,0,0,0
56699,-886,391,261,-133,-7,76,0,0,0
56733,-877,386,254,-171,27,91,0,0,0
56766,-878,374,242,-164,15,49,0,0,0
56799,-884,379,234,-179,51,47,0,0,0
56833,-888,376,230,-167,60,93,0,0,0
56866,-897,368,225,-177,68,131,0,0,0
56899,-902,354,227,-197,91,131,0,0,0
56933,-902,338,230,-78,76,74,0,0,0
56966,-905,344,224,-68,59,95,0,0,0
56999,-917,337,221,-87,69,116,0,0,0
57033,-924,317,226,-32,91,100,0,0,0
57066,-921,322,229,42,54,58,0,0,0
57099,-918,323,233,57,91,-10,0,0,0
57133,-909,328,243,77,41,-27,0,0,0
57166,-905,341,244,74,47,-46,0,0,0
57199,-908,342,248,108,16,-47,0,0,0
57233,-919,358,249,121,-30,-76,0,0,0
57266,-918,378,252,184,-16,-99,0,0,0
57299,-923,385,257,114,-79,-81,0,0,0
57333,-914,378,264,21,-51,-65,0,0,0
57366,-906,372,262,-2,-59,-53,0,0,0
57399,-895,385,264,27,-83,-66,0,0,0
57433,-866,384,260,-27,-91,-36,0,0,0
57466,-864,375,252,-21,-75,14,0,0,0
57499,-867,381,247,49,-96,91,0,0,0
57533,-855,385,230,44,-91,193,0,0,0
57566,-893,387,221,-69,-60,235,0,0,0
57599,-905,351,214,-41,-21,270,0,0,0
57633,-908,358,208,-50,50,189,0,0,0
57666,-919,351,211,-161,104,136,0,0,0
57699,-909,326,226,-96,114,63,0,0,0
57733,-912,331,236,-3,130,-12,0,0,0
57766,-915,334,248,64,69,-27,0,0,0
57799,-901,351,267,141,25,-56,0,0,0
57833,-905,372,268,104,44,-73,0,0,0
57866,-906,379,270,100,-9,-69,0,0,0
57899,-897,392,268,118,-37,-67,0,0,0
57933,-896,397,255,86,-92,-37,0,0,0
57966,-888,393,255,43,-47,-40,0,0,0
57999,-884,391,248,19,4,8,0,0,0
58033,-890,382,238,35,-45,8,0,0,0
58066,-891,386,237,36,-68,6,0,0,0
58099,-888,384,231,65,-45,34,0,0,0
58133,-889,382,235,61,-18,21,0,0,0
58166,-890,377,243,20,-11,19,0,0,0
58199,-890,374,246,17,-19,62,0,0,0
58233,-886,369,253,33,-12,64,0,0,0
58266,-888,374,252,54,-39,29,0,0,0
58299,-888,374,253,65,-27,47,0,0,0
58333,-890,380,259,53,-9,21,0,0,0
58366,-888,379,254,34,-16,60,0,0,0
58399,-878,394,255,19,16,34,0,0,0
58433,-881,392,250,10,25,0,0,0,0
58466,-872,411,250,-6,42,-19,0,0,0
58499,-879,412,247,-98,86,-6,0,0,0
58533,-881,406,246,-117,94,37,0,0,0
58566,-886,397,248,-78,63,73,0,0,0
58599,-889,397,245,-74,40,102,0,0,0
58633,-893,388,241,-73,46,116,0,0,0
58666,-891,383,239,-64,62,148,0,0,0
58699,-890,378,234,-92,47,118,0,0,0
58733,-897,381,235,-65,72,76,0,0,0
58766,-902,380,235,-49,18,45,0,0,0
58799,-914,378,235,-30,35,39,0,0,0
58833,-903,377,242,-33,10,16,0,0,0
58866,-901,372,250,-28,26,51,0,0,0
58899,-896,373,256,-3,8,21,0,0,0
58933,-891,370,259,67,-60,-11,0,0,0
58966,-885,386,259,79,-35,-26,0,0,0
58999,-887,387,256,40,-22,-54,0,0,0
59033,-890,388,245,44,-63,-38,0,0,0
59066,-884,392,242,52,-22,-53,0,0,0
59099,-880,401,237,70,-59,-74,0,0,0
59133,-889,397,238,43,-34,-74,0,0,0
59166,-888,387,236,63,11,-20,0,0,0
59199,-893,396,232,76,-10,-16,0,0,0
59233,-899,401,240,39,20,-71,0,0,0
59266,-892,394,253,3,8,-105,0,0,0
59299,-884,409,263,-9,0,-123,0,0,0
59333,-885,409,264,-41,-23,-121,0,0,0
59366,-882,407,259,32,-49,-33,0,0,0
59399,-867,395,251,21,-52,42,0,0,0
59433,-882,385,246,58,-86,68,0,0,0
59466,-888,380,246,72,-61,83,0,0,0
59499,-874,375,249,88,-46,89,0,0,0
59533,-891,372,250,35,1,75,0,0,0
59566,-890,365,255,27,-3,51,0,0,0
59599,-896,365,253,25,19,8,0,0,0
59633,-889,367,255,57,26,-24,0,0,0
59666,-884,374,262,49,50,-34,0,0,0
59699,-885,385,269,23,45,-6,0,0,0
59733,-891,383,274,-35,52,-2,0,0,0
59766,-895,382,276,-32,36,43,0,0,0
59799,-899,369,274,-64,30,60,0,0,0
59833,-896,350,270,-87,27,62,0,0,0
59866,-893,350,260,-68,-21,42,0,0,0
59899,-912,347,252,-72,-14,51,0,0,0
59933,-929,348,250,-71,8,-16,0,0,0
59966,-910,332,255,-44,-17,-35,0,0,0
59999,-903,334,252,-1,12,-66,0,0,0
60033,-892,344,250,3,-28,-87,0,0,0
60066,-896,358,252,34,-4,-82,0,0,0
60099,-894,361,249,-37,16,-67,0,0,0
60133,-902,361,248,-79,19,-44,0,0,0
60166,-904,351,252,-109,47,-32,0,0,0
60199,-893,346,259,-94,40,-30,0,0,0
60233,-892,345,255,-88,31,17,0,0,0
60266,-888,341,255,-111,31,-7,0,0,0
60299,-908,341,249,-44,32,-4,0,0,0
60333,-920,347,249,-65,65,22,0,0,0
60366,-906,342,254,-47,74,65,0,0,0
60399,-904,338,247,-82,93,59,0,0,0
60433,-909,328,253,-84,37,25,0,0,0
60466,-907,322,260,-56,50,-13,0,0,0
60499,-904,330,268,-37,76,-41,0,0,0
60533,-905,342,274,16,52,-64,0,0,0
60566,-893,356,278,24,7,-36,0,0,0
60599,-892,372,277,32,7,10,0,0,0
60633,-898,372,272,-20,-25,72,0,0,0
60666,-894,366,272,-87,20,122,0,0,0
60699,-899,355,262,-87,29,114,0,0,0
60733,-904,343,256,-73,7,135,0,0,0
60766,-900,341,251,-15,-53,74,0,0,0
60799,-907,336,244,-49,-13,105,0,0,0
60833,-913,326,248,-68,31,96,0,0,0
60866,-909,320,252,-6,34,74,0,0,0
60899,-906,320,254,66,46,-27,0,0,0
60933,-903,336,257,84,2,-11,0,0,0
60966,-895,355,259,43,11,-33,0,0,0
60999,-899,364,260,-21,55,-19,0,0,0
61033,-894,363,260,-61,57,0,0,0,0
61066,-901,364,260,-59,51,5,0,0,0
61099,-904,358,263,-103,33,8,0,0,0
61133,-915,345,259,-85,31,17,0,0,0
61166,-916,335,263,-63,31,2,0,0,0
61199,-907,331,263,-33,29,4,0,0,0
61233,-901,330,265,-53,-22,1,0,0,0
61266,-908,334,260,-4,-7,-3,0,0,0
61299,-906,344,260,12,3,-52,0,0,0
61333,-892,349,255,-44,44,6,0,0,0
61366,-899,337,253,-72,39,42,0,0,0
61399,-902,336,253,-11,-14,41,0,0,0
61433,-906,347,250,54,-37,38,0,0,0
61466,-908,349,250,38,-43,29,0,0,0
61499,-911,340,256,44,9,81,0,0,0
61533,-901,350,260,46,-20,36,0,0,0
61566,-896,348,270,17,-7,6,0,0,0
61599,-896,352,273,-11,-20,27,0,0,0
61633,-897,352,273,-44,23,2,0,0,0
61666,-899,343,268,-120,22,24,0,0,0
61699,-904,334,266,-74,-10,21,0,0,0
61733,-908,326,261,-2,-45,30,0,0,0
61766,-911,338,251,106,-70,37,0,0,0
61799,-899,350,246,116,-59,11,0,0,0
61833,-895,347,250,62,14,38,0,0,0
61866,-908,350,255,84,8,-2,0,0,0
61899,-900,358,264,64,-4,-18,0,0,0
61933,-892,367,271,48,-11,10,0,0,0
61966,-891,351,277,-10,19,-6,0,0,0
61999,-898,355,285,-48,6,12,0,0,0
62033,-903,343,279,-72,24,51,0,0,0
62066,-908,337,278,-74,25,19,0,0,0
62099,-909,322,270,-17,-15,-6,0,0,0
62133,-905,320,261,-37,-9,-19,0,0,0
62166,-895,334,251,0,-42,-6,0,0,0
62199,-902,330,246,-25,7,-21,0,0,0
62233,-919,334,244,-56,4,-31,0,0,0
62266,-907,337,245,62,2,-76,0,0,0
62299,-893,340,243,103,-16,-35,0,0,0
62333,-902,338,247,110,-27,-27,0,0,0
62366,-898,337,253,150,6,-50,0,0,0
62399,-897,350,262,114,7,-15,0,0,0
62433,-901,346,273,155,9,-87,0,0,0
62466,-889,366,280,154,-24,-46,0,0,0
62499,-875,377,290,93,-3,-37,0,0,0
62533,-884,366,283,53,-2,-20,0,0,0
62566,-888,370,279,90,-32,21,0,0,0
62599,-890,370,271,118,-50,46,0,0,0
62633,-902,370,265,115,-56,55,0,0,0
62666,-899,353,255,43,-47,128,0,0,0
62699,-900,330,267,97,-36,134,0,0,0
62733,-905,345,256,111,-18,58,0,0,0
62766,-902,345,268,85,-14,34,0,0,0
62799,-903,358,273,107,-23,4,0,0,0
62833,-885,383,275,27,-14,41,0,0,0
62866,-905,343,283,0,53,80,0,0,0
62899,-895,351,267,-171,35,114,0,0,0
62933,-942,304,268,-97,7,53,0,0,0
62966,-912,325,267,15,-14,-44,0,0,0
62999,-910,321,264,17,24,-50,0,0,0
63033,-902,353,262,52,-41,-65,0,0,0
63066,-890,362,266,55,-11,-59,0,0,0
63099,-885,363,258,-75,-40,-55,0,0,0
63133,-908,344,260,-103,17,-5,0,0,0
63166,-901,334,276,-40,24,-43,0,0,0
63199,-893,364,269,26,-6,-33,0,0,0
63233,-881,374,270,32,23,7,0,0,0
63266,-892,365,264,-40,-24,47,0,0,0
63299,-888,357,274,6,-40,85,0,0,0
63333,-893,369,269,-25,-13,100,0,0,0
63366,-879,374,270,-95,29,88,0,0,0
63399,-891,365,269,-154,37,116,0,0,0
63433,-885,369,254,-213,99,77,0,0,0
63466,-901,355,248,-247,148,38,0,0,0
63499,-897,348,255,-167,166,93,0,0,0
63533,-893,356,263,-159,155,132,0,0,0
63566,-912,327,269,-152,108,132,0,0,0
63599,-906,318,275,-44,96,65,0,0,0
63633,-899,352,264,-55,78,-1,0,0,0
63666,-903,335,263,-201,125,1,0,0,0
63699,-906,305,275,-150,66,43,0,0,0
63733,-920,307,270,-17,44,17,0,0,0
63766,-903,326,257,22,24,-55,0,0,0
63799,-896,341,259,20,20,-56,0,0,0
63833,-905,350,252,-4,36,-35,0,0,0
63866,-907,349,248,25,10,4,0,0,0
63899,-904,354,244,57,-14,30,0,0,0
63933,-904,351,237,126,-34,47,0,0,0
63966,-910,347,238,100,-20,64,0,0,0
63999,-908,330,240,111,-31,97,0,0,0
64033,-910,325,244,128,1,77,0,0,0
64066,-916,320,250,168,-40,51,0,0,0
64099,-918,320,256,231,-84,27,0,0,0
64133,-914,326,258,229,-69,5,0,0,0
64166,-917,330,264,200,-76,-7,0,0,0
64199,-917,323,266,204,-92,-5,0,0,0
64233,-915,327,268,231,-119,-14,0,0,0
64266,-897,322,269,271,-160,-73,0,0,0
64299,-905,332,265,333,-180,-47,0,0,0
64333,-906,336,262,366,-206,-71,0,0,0
64366,-899,348,255,417,-203,-96,0,0,0
64399,-876,372,256,421,-146,-109,0,0,0
64433,-849,403,253,371,-105,-151,0,0,0
64466,-840,426,253,205,-46,-183,0,0,0
64499,-848,438,261,67,78,-186,0,0,0
64533,-866,464,279,-17,116,-182,0,0,0
64566,-879,467,279,-142,153,-65,0,0,0
64599,-880,456,281,-138,122,1,0,0,0
64633,-880,464,272,-256,119,207,0,0,0
64666,-904,418,264,-465,184,271,0,0,0
64699,-902,360,270,-427,179,288,0,0,0
64733,-905,340,262,-361,197,302,0,0,0
64766,-911,330,263,-320,122,240,0,0,0
64799,-913,305,262,-257,75,176,0,0,0
64833,-911,320,260,-168,81,123,0,0,0
64866,-912,335,257,-136,56,101,0,0,0
64899,-912,337,254,-135,55,73,0,0,0
64933,-900,340,257,-84,22,26,0,0,0
64966,-889,351,251,-105,-1,8,0,0,0
64999,-902,354,252,-105,56,11,0,0,0
65033,-905,360,248,-82,38,-23,0,0,0
65066,-878,376,253,-52,15,-20,0,0,0
65099,-883,380,251,-7,3,-30,0,0,0
65133,-894,371,250,5,-30,15,0,0,0
65166,-899,385,246,-21,23,21,0,0,0
65199,-904,360,251,-33,21,110,0,0,0
65233,-902,341,256,-12,-17,131,0,0,0
65266,-925,325,256,39,-38,90,0,0,0
65299,-920,327,267,15,-2,-13,0,0,0
65333,-906,314,274,-19,34,-15,0,0,0
65366,-894,306,288,66,-14,-116,0,0,0
65399,-886,326,286,77,-52,-143,0,0,0
65433,-904,368,286,87,-58,-168,0,0,0
65466,-890,371,277,108,-52,-134,0,0,0
65499,-898,373,255,-6,-17,-61,0,0,0
65533,-891,356,256,23,-63,-24,0,0,0
65566,-891,347,250,124,-46,-41,0,0,0
65599,-873,370,246,139,-38,-43,0,0,0
65633,-883,352,252,79,-17,4,0,0,0
65666,-890,346,266,56,51,-2,0,0,0
65699,-887,355,270,47,59,3,0,0,0
65733,-884,351,276,-3,45,32,0,0,0
65766,-885,367,277,51,42,6,0,0,0
65799,-897,378,268,89,17,97,0,0,0
65833,-896,378,265,27,8,133,0,0,0
65866,-896,372,259,-27,30,188,0,0,0
65899,-904,357,255,-62,40,188,0,0,0
65933,-913,337,255,-18,46,99,0,0,0
65966,-902,336,255,33,22,71,0,0,0
65999,-901,339,258,18,24,69,0,0,0
66033,-908,345,259,10,41,68,0,0,0
66066,-911,346,265,29,36,22,0,0,0
66099,-908,347,264,17,23,24,0,0,0
66133,-910,350,260,4,-11,0,0,0,0
66166,-906,351,261,-10,8,-7,0,0,0
66199,-901,355,261,-12,4,-48,0,0,0
66233,-903,364,261,24,18,-47,0,0,0
66266,-896,375,265,2,-14,-56,0,0,0
66299,-884,383,268,-19,3,-26,0,0,0
66333,-886,387,270,-78,59,-41,0,0,0
66366,-884,391,266,-97,30,42,0,0,0
66399,-890,383,264,-145,44,-2,0,0,0
66433,-895,368,262,-137,15,10,0,0,0
66466,-904,354,260,-133,56,45,0,0,0
66499,-906,341,263,-114,40,82,0,0,0
66533,-903,340,264,-95,22,56,0,0,0
66566,-897,336,264,-101,35,36,0,0,0
66599,-895,334,264,-67,32,19,0,0,0
66633,-898,333,268,-45,23,17,0,0,0
66666,-898,336,269,-13,-51,15,0,0,0
66699,-891,351,269,-19,14,47,0,0,0
66733,-879,363,276,-45,37,24,0,0,0
66766,-872,377,276,-58,3,23,0,0,0
66799,-870,390,272,-120,75,41,0,0,0
66833,-877,398,272,-225,120,65,0,0,0
66866,-895,384,265,-270,123,99,0,0,0
66899,-899,362,263,-264,108,175,0,0,0
66933,-895,341,256,-193,50,189,0,0,0
66966,-906,325,258,-152,79,192,0,0,0
66999,-920,318,257,-123,92,142,0,0,0
67033,-920,314,261,-139,82,97,0,0,0
67066,-908,303,268,-127,93,69,0,0,0
67099,-905,308,272,-94,84,-17,0,0,0
67133,-917,318,271,-43,73,-53,0,0,0
67166,-909,335,272,7,55,-52,0,0,0
67199,-903,351,265,1,24,-44,0,0,0
67233,-899,350,255,-19,12,0,0,0,0
67266,-900,337,246,15,-2,15,0,0,0
67299,-901,326,241,10,-33,23,0,0,0
67333,-894,307,244,6,10,71,0,0,0
67366,-891,299,246,46,-19,8,0,0,0
67399,-904,307,252,94,-18,19,0,0,0
67433,-941,319,259,108,-66,-73,0,0,0
67466,-1009,337,276,200,-125,-72,0,0,0
67499,-1024,354,286,347,-163,-79,0,0,0
67533,-932,344,294,421,-169,-6,0,0,0
67566,-839,351,287,370,-175,14,0,0,0
67599,-818,351,273,290,-195,-25,0,0,0
67633,-839,347,257,273,-176,-68,0,0,0
67666,-868,376,246,262,-124,-97,0,0,0
67699,-880,391,227,228,-73,-67,0,0,0
67733,-892,394,226,144,-11,-56,0,0,0
67766,-897,388,227,170,4,-27,0,0,0
67799,-895,386,238,172,26,20,0,0,0
67833,-884,383,254,164,54,48,0,0,0
67866,-869,374,270,99,92,85,0,0,0
67899,-875,365,290,45,105,57,0,0,0
67933,-885,358,298,42,100,3,0,0,0
67966,-888,374,302,11,51,-90,0,0,0
67999,-900,383,295,-72,63,-38,0,0,0
68033,-909,393,290,-115,53,-45,0,0,0
68066,-906,391,276,-110,6,17,0,0,0
68099,-889,387,261,-55,-31,38,0,0,0
68133,-876,385,250,-79,-7,55,0,0,0
68166,-893,377,248,-146,2,73,0,0,0
68199,-902,368,249,-124,9,53,0,0,0
68233,-894,368,250,-102,4,87,0,0,0
68266,-884,361,249,-106,21,77,0,0,0
68299,-890,365,251,-81,7,62,0,0,0
68333,-891,365,253,-139,36,71,0,0,0
68366,-887,354,258,-128,57,89,0,0,0
68399,-893,353,263,-96,61,54,0,0,0
68433,-899,360,266,-67,54,4,0,0,0
68466,-897,361,268,-95,22,23,0,0,0
68499,-898,364,275,-116,68,43,0,0,0
68533,-891,359,270,-95,47,43,0,0,0
68566,-893,353,269,-70,37,30,0,0,0
68599,-898,356,261,-34,24,2,0,0,0
68633,-899,354,254,-36,23,12,0,0,0
68666,-894,357,255,-23,23,22,0,0,0
68699,-897,360,250,-80,90,33,0,0,0
68733,-901,355,257,-38,61,20,0,0,0
68766,-893,361,259,-38,37,28,0,0,0
68799,-889,361,271,-54,76,-10,0,0,0
68833,-894,365,275,-66,39,18,0,0,0
68866,-899,369,280,-101,61,-2,0,0,0
68899,-903,363,276,-101,23,62,0,0,0
68933,-904,351,270,-38,-3,30,0,0,0
68966,-897,343,264,-5,-58,56,0,0,0
68999,-889,348,259,26,-15,64,0,0,0
69033,-886,350,249,31,-33,75,0,0,0
69066,-891,358,243,25,-2,13,0,0,0
69099,-894,360,241,8,12,12,0,0,0
69133,-892,356,242,2,59,5,0,0,0
69166,-893,353,241,-63,109,-15,0,0,0
69199,-902,349,248,-31,78,-2,0,0,0
69233,-906,352,255,11,97,8,0,0,0
69266,-909,359,265,29,52,20,0,0,0
69299,-898,360,268,-4,46,-16,0,0,0
69333,-902,344,264,-29,39,52,0,0,0
69366,-906,341,260,12,24,54,0,0,0
69399,-907,348,251,28,12,28,0,0,0
69433,-903,350,241,48,-36,-1,0,0,0
69466,-903,358,235,95,-52,-16,0,0,0
69499,-907,368,237,50,-5,5,0,0,0
69533,-904,368,239,19,23,24,0,0,0
69566,-903,369,245,23,-21,39,0,0,0
69599,-898,366,254,38,0,-2,0,0,0
69633,-897,369,260,4,10,25,0,0,0
69666,-899,364,264,-36,50,46,0,0,0
69699,-899,354,263,-57,39,39,0,0,0
69733,-907,345,259,-36,16,42,0,0,0
69766,-909,342,250,6,-1,12,0,0,0
69799,-906,345,247,23,-32,12,0,0,0
69833,-901,351,250,12,-11,21,0,0,0
69866,-892,355,247,6,6,32,0,0,0
69899,-887,359,249,33,-16,30,0,0,0
69933,-889,367,248,11,2,-5,0,0,0
69966,-896,366,244,-19,-28,40,0,0,0
69999,-898,367,246,-28,31,62,0,0,0
70033,-899,362,249,-25,43,77,0,0,0
70066,-898,350,253,-53,25,84,0,0,0
70099,-895,344,255,-42,24,41,0,0,0
70133,-892,344,254,-26,22,63,0,0,0
70166,-886,344,254,-16,5,43,0,0,0
70199,-892,356,256,11,23,33,0,0,0
70233,-900,377,259,30,50,5,0,0,0
70266,-907,390,258,25,25,11,0,0,0
70299,-904,397,259,61,19,24,0,0,0
70333,-893,406,254,-11,36,77,0,0,0
70366,-889,400,253,-73,68,56,0,0,0
70399,-883,376,251,-110,42,84,0,0,0
70433,-890,355,251,-104,51,81,0,0,0
70466,-892,342,256,-70,15,60,0,0,0
70499,-897,337,254,-19,-1,47,0,0,0
70533,-895,347,253,59,21,-24,0,0,0
70566,-896,370,247,43,36,-36,0,0,0
70599,-897,383,248,9,50,-84,0,0,0
70633,-904,381,243,9,-8,-48,0,0,0
70666,-900,387,244,43,20,-17,0,0,0
70699,-896,400,251,57,0,17,0,0,0
70733,-889,387,250,27,-27,42,0,0,0
70766,-894,385,244,38,-27,-7,0,0,0
70799,-893,372,244,23,2,-13,0,0,0
70833,-905,372,264,39,8,7,0,0,0
70866,-898,373,269,55,-8,-7,0,0,0
70899,-889,380,257,88,-39,-24,0,0,0
70933,-893,392,258,77,-98,-68,0,0,0
70966,-884,388,250,69,-64,-59,0,0,0
70999,-878,388,237,10,-23,5,0,0,0
71033,-882,380,240,-30,-7,13,0,0,0
71066,-892,369,232,31,-46,3,0,0,0
71099,-900,377,238,29,-32,11,0,0,0
71133,-902,377,253,40,10,-24,0,0,0
71166,-896,376,263,0,32,2,0,0,0
71199,-889,375,269,8,19,30,0,0,0
71233,-884,381,278,-6,-13,10,0,0,0
71266,-882,385,278,-2,-25,10,0,0,0
71299,-887,382,273,-45,-36,68,0,0,0
71333,-892,380,269,-20,-29,76,0,0,0
71366,-885,379,265,-52,-12,135,0,0,0
71399,-883,368,262,-54,-12,135,0,0,0
71433,-885,368,257,-35,-45,102,0,0,0
71466,-894,360,255,-28,-23,73,0,0,0
71499,-898,364,264,-26,15,71,0,0,0
71533,-887,367,261,-41,18,73,0,0,0
71566,-892,358,262,-45,-2,69,0,0,0
71599,-897,352,264,-11,28,32,0,0,0
71633,-898,355,271,-15,-2,2,0,0,0
71666,-897,354,275,-20,32,-17,0,0,0
71699,-898,367,284,23,-23,-26,0,0,0
71733,-897,385,282,38,-28,8,0,0,0
71766,-883,387,280,52,-66,23,0,0,0
71799,-873,392,276,28,-68,38,0,0,0
71833,-873,383,273,-38,-26,79,0,0,0
71866,-878,371,266,-43,-61,85,0,0,0
71899,-878,361,261,-22,-12,65,0,0,0
71933,-877,362,264,-42,-19,42,0,0,0
71966,-877,360,263,-33,0,-28,0,0,0
71999,-889,369,269,-50,66,-18,0,0,0
72033,-903,381,278,-63,30,-22,0,0,0
72066,-910,390,281,-14,24,-24,0,0,0
72099,-904,391,292,25,25,-11,0,0,0
72133,-887,382,297,30,14,50,0,0,0
72166,-868,374,299,-11,45,64,0,0,0
72199,-859,364,293,-15,22,36,0,0,0
72233,-864,358,280,-59,-1,28,0,0,0
72266,-869,366,265,-59,-6,-9,0,0,0
72299,-869,366,259,-132,74,-12,0,0,0
72333,-880,373,256,-185,140,-22,0,0,0
72366,-895,372,256,-224,126,-11,0,0,0
72399,-902,372,264,-183,158,-8,0,0,0
72433,-905,361,276,-137,90,33,0,0,0
72466,-907,349,282,-62,50,67,0,0,0
72499,-901,348,301,-28,23,90,0,0,0
72533,-892,344,304,-20,34,84,0,0,0
72566,-888,340,298,-30,-21,64,0,0,0
72599,-885,349,285,-27,-16,-23,0,0,0
72633,-897,357,269,-2,-44,-37,0,0,0
72666,-896,374,262,13,-16,16,0,0,0
72699,-907,383,264,15,23,9,0,0,0
72733,-879,365,259,59,-23,110,0,0,0
72766,-886,386,259,37,-17,122,0,0,0
72799,-887,354,265,-39,2,94,0,0,0
72833,-894,340,270,-63,48,82,0,0,0
72866,-902,338,292,-57,55,-2,0,0,0
72899,-898,339,293,-62,68,-68,0,0,0
72933,-891,350,295,29,-38,-123,0,0,0
72966,-888,375,286,70,-42,-114,0,0,0
72999,-891,394,280,34,-35,-50,0,0,0
73033,-876,401,275,54,-32,43,0,0,0
73066,-874,395,276,-37,-37,64,0,0,0
73099,-870,373,275,-25,-55,105,0,0,0
73133,-881,363,269,-20,-44,101,0,0,0
73166,-896,360,267,-31,-27,99,0,0,0
73199,-898,351,265,-20,8,132,0,0,0
73233,-898,340,275,3,-13,107,0,0,0
73266,-896,339,284,55,-45,60,0,0,0
73299,-896,350,290,138,-83,53,0,0,0
73333,-893,354,292,135,-87,36,0,0,0
73366,-888,356,293,138,-59,32,0,0,0
73399,-880,354,289,178,-38,-2,0,0,0
73433,-880,368,288,167,-42,-71,0,0,0
73466,-884,385,288,150,-20,-100,0,0,0
73499,-872,402,280,103,6,-103,0,0,0
73533,-866,408,271,64,32,-75,0,0,0
73566,-866,407,273,28,36,-131,0,0,0
73599,-867,416,272,85,34,-91,0,0,0
73633,-872,422,282,9,50,-46,0,0,0
73666,-878,406,295,-61,126,8,0,0,0
73699,-884,384,300,-131,96,43,0,0,0
73733,-888,358,306,-147,56,45,0,0,0
73766,-888,349,301,-65,59,-12,0,0,0
73799,-892,354,289,-46,27,-66,0,0,0
73833,-901,347,279,-62,63,-95,0,0,0
73866,-899,361,279,-25,16,-77,0,0,0
73899,-879,372,273,-42,13,-37,0,0,0
73933,-887,361,270,-44,-16,-53,0,0,0
73966,-892,373,271,-59,-8,-20,0,0,0
73999,-892,348,277,-79,2,28,0,0,0
74033,-892,353,284,-21,10,11,0,0,0
74066,-889,373,289,2,-9,15,0,0,0
74099,-888,361,293,-11,-26,56,0,0,0
74133,-894,349,304,56,-24,50,0,0,0
74166,-872,384,300,77,-77,51,0,0,0
74199,-882,391,288,-28,-17,86,0,0,0
74233,-879,364,293,-56,-26,131,0,0,0
74266,-872,365,284,37,-58,81,0,0,0
74299,-875,385,288,30,-67,98,0,0,0
74333,-884,377,287,-14,-34,122,0,0,0
74366,-884,366,302,-37,12,131,0,0,0
74399,-878,368,301,-96,22,123,0,0,0
74433,-892,359,306,-36,11,59,0,0,0
74466,-893,370,308,-24,-17,20,0,0,0
74499,-875,384,311,-64,14,56,0,0,0
74533,-858,376,312,-83,22,42,0,0,0
74566,-873,376,302,-62,28,50,0,0,0
74599,-873,367,292,-130,22,39,0,0,0
74633,-885,391,295,-181,163,70,0,0,0
74666,-888,296,306,-208,51,-89,0,0,0
74699,-890,363,286,-42,59,-1,0,0,0
74733,-891,372,263,-15,72,-2,0,0,0
74766,-875,359,263,-45,68,-28,0,0,0
74799,-884,345,263,55,30,17,0,0,0
74833,-885,368,269,86,15,15,0,0,0
74866,-887,375,271,60,55,13,0,0,0
74899,-902,358,277,63,65,43,0,0,0
74933,-895,353,292,125,27,-56,0,0,0
74966,-886,362,284,158,-11,-54,0,0,0
74999,-899,355,294,65,15,-8,0,0,0
75033,-899,354,301,93,-5,-40,0,0,0
75066,-895,356,303,139,-62,-53,0,0,0
75099,-885,388,299,217,-96,-91,0,0,0
75133,-873,405,297,168,-95,-55,0,0,0
75166,-879,404,300,103,-57,-18,0,0,0
75199,-868,410,302,67,-61,-13,0,0,0
75233,-863,407,298,-11,-23,-6,0,0,0
75266,-859,407,299,8,-66,12,0,0,0
75299,-865,397,297,-100,-20,47,0,0,0
75333,-878,387,302,-57,11,54,0,0,0
75366,-877,395,299,-89,-4,73,0,0,0
75399,-859,402,292,-125,8,98,0,0,0
75433,-871,401,294,-180,64,83,0,0,0
75466,-872,385,292,-222,67,116,0,0,0
75499,-882,369,294,-214,78,171,0,0,0
75533,-894,357,291,-170,32,140,0,0,0
75566,-895,349,286,-166,24,161,0,0,0
75599,-897,339,293,-126,5,116,0,0,0
75633,-896,329,296,-47,-14,77,0,0,0
75666,-881,354,295,-21,4,9,0,0,0
75699,-888,353,281,-26,-11,11,0,0,0
75733,-871,354,286,-48,18,-21,0,0,0
75766,-879,356,270,-2,-12,-28,0,0,0
75799,-893,350,269,8,-6,-13,0,0,0
75833,-890,339,267,40,11,17,0,0,0
75866,-901,338,263,116,-14,-2,0,0,0
75899,-892,347,275,163,-12,-60,0,0,0
75933,-879,371,285,196,-7,-97,0,0,0
75966,-884,381,298,184,20,-91,0,0,0
75999,-882,382,308,107,24,-19,0,0,0
76033,-891,376,316,97,22,-58,0,0,0
76066,-896,374,320,102,-12,-47,0,0,0
76099,-882,370,319,94,-43,-63,0,0,0
76133,-873,362,314,52,-45,-49,0,0,0
76166,-876,362,299,-19,3,-47,0,0,0
76199,-877,351,301,-36,-18,-56,0,0,0
76233,-878,369,299,15,3,-54,0,0,0
76266,-870,365,298,38,-32,-63,0,0,0
76299,-864,392,291,29,-33,-33,0,0,0
76333,-870,403,285,44,-10,-5,0,0,0
76366,-850,421,284,77,-19,22,0,0,0
76399,-850,426,285,-1,23,105,0,0,0
76433,-868,419,295,-57,36,176,0,0,0
76466,-902,403,294,-156,56,237,0,0,0
76499,-899,371,304,-321,107,220,0,0,0
76533,-897,325,308,-387,160,240,0,0,0
76566,-903,302,312,-289,111,168,0,0,0
76599,-892,285,298,-45,-3,45,0,0,0
76633,-892,329,283,85,-58,10,0,0,0
76666,-912,343,284,21,-13,32,0,0,0
76699,-918,344,287,-26,8,28,0,0,0
76733,-901,335,285,22,-1,-26,0,0,0
76766,-877,342,290,160,-67,-102,0,0,0
76799,-868,366,287,257,-111,-144,0,0,0
76833,-877,397,272,293,-111,-82,0,0,0
76866,-881,401,270,169,-78,-44,0,0,0
76899,-885,385,270,43,40,30,0,0,0
76933,-897,341,280,6,32,-2,0,0,0
76966,-890,320,292,45,25,-47,0,0,0
76999,-898,320,301,102,37,-109,0,0,0
77033,-898,347,306,102,45,-139,0,0,0
77066,-890,351,310,54,42,-174,0,0,0
77099,-896,362,313,123,-5,-150,0,0,0
77133,-894,380,314,220,-65,-159,0,0,0
77166,-884,410,318,242,-88,-140,0,0,0
77199,-862,424,312,216,-95,-42,0,0,0
77233,-849,429,304,119,-56,27,0,0,0
77266,-848,420,296,-55,-44,79,0,0,0
77299,-883,382,295,-226,42,59,0,0,0
77333,-892,347,301,-222,72,116,0,0,0
77366,-886,327,294,-217,92,102,0,0,0
77399,-878,312,298,-174,45,114,0,0,0
77433,-881,310,296,-20,12,56,0,0,0
77466,-893,330,285,75,-26,37,0,0,0
77499,-896,344,284,79,-34,50,0,0,0
77533,-887,360,278,118,-24,56,0,0,0
77566,-877,364,275,95,-30,71,0,0,0
77599,-874,367,272,87,-43,86,0,0,0
77633,-890,358,267,90,-15,90,0,0,0
77666,-901,345,273,45,-4,97,0,0,0
77699,-904,331,275,80,22,71,0,0,0
77733,-896,327,282,116,62,20,0,0,0
77766,-889,332,297,128,-16,-13,0,0,0
77799,-887,332,306,123,16,-44,0,0,0
77833,-880,358,319,129,6,-71,0,0,0
77866,-892,375,322,140,-20,-84,0,0,0
77899,-882,406,317,154,-82,-102,0,0,0
77933,-869,425,311,156,-62,-95,0,0,0
77966,-869,440,287,36,-58,-37,0,0,0
77999,-865,421,274,-159,26,120,0,0,0
78033,-875,385,269,-159,45,138,0,0,0
78066,-884,370,261,-88,-1,146,0,0,0
78099,-889,369,259,58,-46,104,0,0,0
78133,-884,383,257,96,-16,103,0,0,0
78166,-877,387,264,14,48,140,0,0,0
78199,-880,370,275,-73,44,180,0,0,0
78233,-891,345,290,-56,55,93,0,0,0
78266,-892,359,311,86,-7,30,0,0,0
78299,-879,378,315,44,-36,2,0,0,0
78333,-884,377,314,-46,7,-6,0,0,0
78366,-888,387,310,-42,10,8,0,0,0
78399,-890,383,293,-52,24,-39,0,0,0
78433,-877,395,286,40,-34,-37,0,0,0
78466,-868,404,272,-10,-18,-56,0,0,0
78499,-867,392,266,-72,12,26,0,0,0
78533,-885,370,274,-43,14,45,0,0,0
78566,-888,369,281,8,-3,45,0,0,0
78599,-884,364,284,21,-5,-34,0,0,0
78633,-879,370,295,19,18,-44,0,0,0
78666,-870,378,295,15,24,-30,0,0,0
78699,-875,374,290,-54,26,-24,0,0,0
78733,-884,371,288,-48,34,-19,0,0,0
78766,-879,363,283,-4,-5,-58,0,0,0
78799,-895,372,274,69,-17,-47,0,0,0
78833,-872,383,279,19,0,-11,0,0,0
78866,-879,368,279,21,42,3,0,0,0
78899,-883,379,286,44,12,-4,0,0,0
78933,-874,385,290,1,-14,-30,0,0,0
78966,-883,382,292,-20,57,8,0,0,0
78999,-878,369,292,-163,74,46,0,0,0
79033,-899,338,292,-135,50,37,0,0,0
79066,-905,334,289,-29,25,4,0,0,0
79099,-901,342,289,78,-7,-39,0,0,0
79133,-891,357,281,106,-17,-56,0,0,0
79166,-885,369,277,36,-1,-19,0,0,0
79199,-883,360,270,-15,42,7,0,0,0
79233,-892,354,269,11,45,-2,0,0,0
79266,-891,363,267,72,28,-32,0,0,0
79299,-894,367,272,70,7,-29,0,0,0
79333,-901,369,282,72,4,11,0,0,0
79366,-896,366,291,43,17,30,0,0,0
79399,-892,361,292,-53,10,-2,0,0,0
79433,-901,343,302,-45,38,-26,0,0,0
79466,-907,341,297,-52,1,-60,0,0,0
79499,-897,357,291,-61,26,-67,0,0,0
79533,-894,332,286,-46,-6,-50,0,0,0
79566,-892,343,281,82,-20,-15,0,0,0
79599,-869,359,273,103,-76,7,0,0,0
79633,-892,352,274,75,-78,1,0,0,0
79666,-886,363,283,147,-75,32,0,0,0
79699,-881,378,283,80,-58,60,0,0,0
79733,-867,366,293,35,-3,72,0,0,0
79766,-879,368,291,59,-45,68,0,0,0
79799,-886,370,292,49,-36,66,0,0,0
79833,-886,371,288,26,17,112,0,0,0
79866,-862,369,286,-34,28,76,0,0,0
79899,-860,357,281,-83,72,84,0,0,0
79933,-889,354,272,-91,62,39,0,0,0
79966,-900,358,279,-78,70,-9,0,0,0
79999,-911,354,271,-91,67,53,0,0,0
80033,-905,359,291,20,87,-72,0,0,0
80066,-884,385,298,80,13,-19,0,0,0
80099,-866,397,311,31,11,-1,0,0,0
80133,-872,398,319,-21,7,32,0,0,0
80166,-877,405,313,-30,-5,16,0,0,0
80199,-873,403,285,-169,28,45,0,0,0
80233,-885,367,272,-195,37,103,0,0,0
80266,-894,345,257,-79,14,73,0,0,0
80299,-890,345,256,125,-60,67,0,0,0
80333,-877,357,260,218,-42,58,0,0,0
80366,-879,380,267,258,-51,88,0,0,0
80399,-877,397,280,256,-48,55,0,0,0
80433,-881,405,280,195,-33,2,0,0,0
80466,-856,394,290,122,3,18,0,0,0
80499,-861,395,294,73,46,35,0,0,0
80533,-878,379,295,60,29,12,0,0,0
80566,-898,381,292,95,-7,-23,0,0,0
80599,-897,409,285,124,-11,-39,0,0,0
80633,-886,402,281,50,13,0,0,0,0
80666,-871,400,287,23,40,20,0,0,0
80699,-865,412,290,27,29,2,0,0,0
80733,-878,423,290,-53,33,14,0,0,0
80766,-884,417,284,-112,14,16,0,0,0
80799,-882,403,283,-188,34,40,0,0,0
80833,-876,375,281,-234,102,57,0,0,0
80866,-873,360,279,-175,85,50,0,0,0
80899,-866,355,277,-137,55,56,0,0,0
80933,-868,359,264,-92,27,52,0,0,0
80966,-897,353,259,-127,35,18,0,0,0
80999,-899,356,256,-73,43,80,0,0,0
81033,-895,353,258,-47,73,57,0,0,0
81066,-895,367,265,44,17,13,0,0,0
81099,-885,392,277,84,-2,35,0,0,0
81133,-889,391,292,-15,37,28,0,0,0
81166,-891,372,298,-133,45,33,0,0,0
81199,-889,337,303,-147,69,33,0,0,0
81233,-894,328,296,-36,46,6,0,0,0
81266,-904,349,281,29,-33,-30,0,0,0
81299,-894,369,274,76,-51,-75,0,0,0
81333,-891,381,265,42,-8,-13,0,0,0
81366,-877,409,267,8,13,-6,0,0,0
81399,-870,386,274,-131,50,13,0,0,0
81433,-877,365,275,-72,49,13,0,0,0
81466,-886,365,267,-93,44,9,0,0,0
81499,-901,343,267,-96,63,7,0,0,0
81533,-909,336,265,-2,74,-12,0,0,0
81566,-896,322,278,61,-3,-39,0,0,0
81599,-887,330,290,276,-82,-81,0,0,0
81633,-889,395,294,304,-81,-96,0,0,0
81666,-875,423,296,91,-16,-53,0,0,0
81699,-873,407,304,-58,57,-17,0,0,0
81733,-860,398,297,-100,51,12,0,0,0
81766,-865,393,283,-146,6,-2,0,0,0
81799,-872,385,273,-168,24,40,0,0,0
81833,-889,367,261,-178,61,82,0,0,0
81866,-899,362,262,-148,72,81,0,0,0
81899,-893,353,270,-87,74,68,0,0,0
81933,-885,354,277,-51,41,42,0,0,0
81966,-883,356,281,-68,77,70,0,0,0
81999,-888,358,273,-99,77,27,0,0,0
82033,-901,353,267,-104,90,31,0,0,0
82066,-904,345,258,-83,84,42,0,0,0
82099,-894,340,250,-53,67,54,0,0,0
82133,-906,328,256,80,-5,58,0,0,0
82166,-909,342,258,169,-51,58,0,0,0
82199,-895,376,264,169,-41,22,0,0,0
82233,-900,383,276,98,-4,28,0,0,0
82266,-899,375,288,38,12,-10,0,0,0
82299,-884,373,291,6,32,6,0,0,0
82333,-883,372,286,-28,11,-6,0,0,0
82366,-902,378,276,-32,-3,30,0,0,0
82399,-891,377,272,10,-58,37,0,0,0
82433,-888,366,257,22,-82,58,0,0,0
82466,-882,374,268,33,15,-9,0,0,0
82499,-890,367,271,1,23,0,0,0,0
82533,-879,376,282,-17,32,12,0,0,0
82566,-879,377,289,-64,28,20,0,0,0
82599,-882,371,297,-71,5,-35,0,0,0
82633,-878,379,293,-39,-6,-4,0,0,0
82666,-871,392,299,-51,18,43,0,0,0
82699,-873,397,292,-117,3,58,0,0,0
82733,-883,378,281,-148,10,97,0,0,0
82766,-884,380,274,-100,18,56,0,0,0
82799,-878,384,265,-64,1,52,0,0,0
82833,-862,379,261,-168,45,131,0,0,0
82866,-882,351,267,-210,61,157,0,0,0
82899,-905,338,265,-149,60,145,0,0,0
82933,-899,338,266,-87,68,82,0,0,0
82966,-893,335,273,-35,22,78,0,0,0
82999,-906,343,278,64,-1,65,0,0,0
83033,-904,374,269,88,12,88,0,0,0
83066,-902,351,283,70,-40,98,0,0,0
83099,-885,370,298,268,-90,36,0,0,0
83133,-870,393,289,266,-118,47,0,0,0
83166,-872,404,300,168,-95,45,0,0,0
83199,-885,412,309,60,-42,28,0,0,0
83233,-872,417,307,-72,17,30,0,0,0
83266,-856,399,304,-173,35,11,0,0,0
83299,-857,396,282,-192,60,3,0,0,0
83333,-869,375,264,-238,96,16,0,0,0
83366,-892,367,252,-114,111,29,0,0,0
83399,-903,369,244,-32,67,54,0,0,0
83432,-894,363,250,37,33,68,0,0,0
83466,-881,360,280,84,45,37,0,0,0
83499,-886,359,302,9,67,29,0,0,0
83532,-889,366,318,0,37,-43,0,0,0
83566,-881,378,325,-16,73,-57,0,0,0
83599,-882,391,321,-56,14,-87,0,0,0
83632,-883,395,294,-88,1,-73,0,0,0
83666,-887,372,274,-133,31,0,0,0,0
83699,-888,365,263,-45,-2,9,0,0,0
83732,-889,374,245,29,-10,-11,0,0,0
83766,-885,389,241,107,-38,4,0,0,0
83799,-878,391,247,110,-28,58,0,0,0
83832,-879,394,253,41,30,125,0,0,0
83866,-881,373,268,-39,56,69,0,0,0
83899,-877,356,282,-65,88,50,0,0,0
83932,-889,342,287,10,28,-30,0,0,0
83966,-903,351,283,76,-1,-26,0,0,0
83999,-884,366,283,84,-33,-13,0,0,0
84032,-876,377,272,113,-37,8,0,0,0
84066,-877,387,257,67,-55,-9,0,0,0
84099,-892,370,258,115,-50,13,0,0,0
84132,-891,412,249,156,-11,-34,0,0,0
84166,-877,406,255,75,26,7,0,0,0
84199,-873,387,274,42,12,56,0,0,0
84232,-869,372,288,117,-4,41,0,0,0
84266,-876,397,286,153,-38,-22,0,0,0
84299,-884,398,267,-73,35,29,0,0,0
84332,-897,342,281,-117,92,37,0,0,0
84366,-899,339,256,14,18,7,0,0,0
84399,-911,354,237,141,-11,-34,0,0,0
84432,-900,386,242,198,-31,-82,0,0,0
84466,-883,411,242,175,-42,-65,0,0,0
84499,-894,395,252,65,65,57,0,0,0
84532,-899,395,294,67,19,-10,0,0,0
84566,-881,385,303,-2,12,-21,0,0,0
84599,-891,380,310,27,-34,11,0,0,0
84632,-878,399,303,10,-67,-27,0,0,0
84666,-884,403,291,-70,-25,37,0,0,0
84699,-884,388,280,-106,-33,2,0,0,0
84732,-873,403,269,-49,-79,10,0,0,0
84766,-867,407,264,-108,-14,-24,0,0,0
84799,-867,406,263,-163,7,28,0,0,0
84832,-873,387,258,-261,34,65,0,0,0
84866,-874,362,256,-281,114,72,0,0,0
84899,-884,343,254,-252,112,89,0,0,0
84932,-881,332,257,-206,82,80,0,0,0
84966,-902,316,255,-123,56,51,0,0,0
84999,-911,321,256,-17,76,37,0,0,0
85032,-902,327,253,59,51,50,0,0,0
85066,-902,330,266,130,13,3,0,0,0
85099,-896,362,274,307,-20,-64,0,0,0
85132,-865,383,295,291,-68,-114,0,0,0
85166,-875,423,290,158,16,-6,0,0,0
85199,-879,424,266,-67,58,-14,0,0,0
85232,-876,388,259,-209,100,69,0,0,0
85266,-903,357,253,-32,48,37,0,0,0
85299,-902,367,242,134,-42,28,0,0,0
85332,-917,377,259,182,-53,92,0,0,0
85366,-908,389,273,142,7,77,0,0,0
85399,-890,373,286,62,-9,50,0,0,0
85432,-887,363,301,31,-1,-26,0,0,0
85466,-874,374,312,-2,-45,-63,0,0,0
85499,-891,369,304,-11,5,-30,0,0,0
85532,-900,385,289,-54,-29,-41,0,0,0
85566,-891,384,274,-15,-44,-35,0,0,0
85599,-879,370,259,-11,-68,-40,0,0,0
85632,-871,378,261,51,-63,-22,0,0,0
85666,-877,392,260,-7,-51,4,0,0,0
85699,-879,390,272,-89,40,18,0,0,0
85732,-879,368,267,-162,82,31,0,0,0
85766,-880,343,266,-162,50,8,0,0,0
85799,-890,327,260,-45,41,-19,0,0,0
85832,-893,345,263,22,29,6,0,0,0
85866,-902,344,257,29,34,5,0,0,0
85899,-903,344,270,81,-6,45,0,0,0
85932,-896,346,271,89,14,26,0,0,0
85966,-897,335,271,31,-4,4,0,0,0
85999,-902,330,274,57,12,-41,0,0,0
86032,-903,340,273,166,-43,-28,0,0,0
86066,-895,378,286,334,-92,-40,0,0,0
86099,-873,429,287,362,-135,-31,0,0,0
86132,-871,449,292,208,-102,0,0,0,0
86166,-863,436,301,-17,-2,140,0,0,0
86199,-870,407,308,-180,9,107,0,0,0
86232,-879,374,295,-239,37,102,0,0,0
86266,-889,355,290,-156,14,13,0,0,0
86299,-886,358,273,-124,11,58,0,0,0
86332,-883,350,265,-146,61,71,0,0,0
86366,-889,339,262,-66,39,58,0,0,0
86399,-886,371,268,8,42,17,0,0,0
86432,-879,383,269,-37,70,18,0,0,0
86466,-880,367,280,-87,79,14,0,0,0
86499,-874,372,286,-76,43,43,0,0,0
86532,-882,373,284,-118,77,57,0,0,0
86566,-898,362,282,-118,102,50,0,0,0
86599,-894,359,279,-84,92,34,0,0,0
86632,-895,352,270,-102,71,26,0,0,0
86666,-895,348,274,-99,69,30,0,0,0
86699,-897,349,269,-93,81,6,0,0,0
86732,-897,347,272,-2,35,5,0,0,0
86766,-894,361,276,76,-5,-21,0,0,0
86799,-889,381,283,77,-25,2,0,0,0
86832,-892,383,289,19,20,-10,0,0,0
86866,-885,381,290,-5,-36,19,0,0,0
86899,-883,375,283,-23,19,43,0,0,0
86932,-883,362,272,2,-34,5,0,0,0
86966,-887,364,262,48,-19,28,0,0,0
86999,-883,365,262,33,6,60,0,0,0
87032,-890,357,258,39,-5,50,0,0,0
87066,-892,359,258,62,9,4,0,0,0
87099,-891,367,266,89,-5,-41,0,0,0
87132,-878,375,270,80,1,-34,0,0,0
87166,-882,377,272,54,50,-25,0,0,0
87199,-887,385,274,11,30,-23,0,0,0
87232,-893,382,275,-19,17,-19,0,0,0
87266,-885,388,279,42,1,-28,0,0,0
87299,-881,399,276,34,2,-56,0,0,0
87332,-879,393,287,36,10,-34,0,0,0
87366,-875,435,295,-12,34,4,0,0,0
87399,-870,435,297,-81,32,40,0,0,0
87432,-862,432,298,-111,-35,135,0,0,0
87466,-861,424,282,-126,-43,217,0,0,0
87499,-866,402,271,-152,-7,312,0,0,0
87532,-878,384,260,-133,-26,380,0,0,0
87566,-890,362,251,-113,-27,395,0,0,0
87599,-901,351,241,-52,-33,365,0,0,0
87632,-899,342,247,-14,0,287,0,0,0
87666,-891,340,261,-7,33,192,0,0,0
87699,-871,344,267,35,70,65,0,0,0
87732,-868,367,280,-2,73,-6,0,0,0
87766,-890,371,290,-60,77,-115,0,0,0
87799,-900,365,296,-16,81,-121,0,0,0
87832,-897,371,294,-31,79,-162,0,0,0
87866,-892,384,293,-68,107,-267,0,0,0
87899,-876,392,298,-103,94,-321,0,0,0
87932,-880,402,294,-63,80,-315,0,0,0
87966,-891,421,295,-69,23,-307,0,0,0
87999,-883,441,305,-36,32,-205,0,0,0
88032,-875,445,289,-128,25,-92,0,0,0
88066,-857,416,283,-177,30,42,0,0,0
88099,-851,395,275,-138,29,84,0,0,0
88132,-852,385,267,-62,-9,114,0,0,0
88166,-870,373,255,-105,19,171,0,0,0
88199,-890,361,266,-120,33,222,0,0,0
88232,-891,350,273,-95,32,247,0,0,0
88266,-888,327,279,-24,22,198,0,0,0
88299,-877,333,291,17,-16,136,0,0,0
88332,-896,342,297,-3,24,56,0,0,0
88366,-894,362,294,-40,42,37,0,0,0
88399,-880,372,289,-70,53,1,0,0,0
88432,-876,367,282,-129,85,-25,0,0,0
88466,-891,340,277,-72,25,-9,0,0,0
88499,-896,362,268,97,13,3,0,0,0
88532,-894,388,262,78,-7,-26,0,0,0
88566,-892,375,269,-47,63,31,0,0,0
88599,-878,344,268,-71,65,29,0,0,0
88632,-887,336,260,-28,65,-11,0,0,0
88666,-896,352,262,23,63,-36,0,0,0
88699,-914,379,266,171,11,-67,0,0,0
88732,-897,405,277,254,-85,2,0,0,0
88766,-889,416,285,290,-133,102,0,0,0
88799,-882,427,300,231,-117,101,0,0,0
88832,-857,435,304,101,-102,124,0,0,0
88866,-844,407,298,-110,-46,153,0,0,0
88899,-875,381,284,-124,-33,135,0,0,0
88932,-886,389,268,-13,-48,33,0,0,0
88966,-862,403,262,49,-73,67,0,0,0
88999,-877,396,258,-4,-47,137,0,0,0
89032,-887,380,271,22,10,134,0,0,0
89066,-885,377,288,62,19,55,0,0,0
89099,-877,383,294,67,-17,19,0,0,0
89132,-873,382,303,-11,23,28,0,0,0
89166,-879,381,295,-57,46,-17,0,0,0
89199,-883,377,294,-1,57,-85,0,0,0
89232,-874,395,285,30,34,-51,0,0,0
89266,-875,412,277,32,25,-71,0,0,0
89299,-869,414,269,9,26,-101,0,0,0
89332,-863,407,267,-57,70,-53,0,0,0
89366,-862,402,268,-131,70,-47,0,0,0
89399,-873,385,264,-82,89,-6,0,0,0
89432,-877,386,270,-18,46,-82,0,0,0
89466,-875,379,283,70,-1,-49,0,0,0
89499,-871,390,280,82,29,-17,0,0,0
89532,-862,407,279,46,12,2,0,0,0
89566,-857,406,276,-19,14,30,0,0,0
89599,-867,403,281,-3,9,17,0,0,0
89632,-876,421,283,32,4,15,0,0,0
89666,-877,427,289,-1,52,61,0,0,0
89699,-869,437,282,-13,34,119,0,0,0
89732,-866,435,269,-123,64,132,0,0,0
89766,-866,418,263,-121,64,98,0,0,0
89799,-874,407,249,-115,65,178,0,0,0
89832,-888,398,247,-128,89,194,0,0,0
89866,-906,370,251,-73,68,181,0,0,0
89899,-902,370,248,-16,35,172,0,0,0
89932,-889,364,255,-27,31,138,0,0,0
89966,-895,358,262,1,23,61,0,0,0
89999,-898,360,270,23,27,-40,0,0,0
90032,-885,372,274,42,13,-58,0,0,0
90066,-884,378,288,55,15,-111,0,0,0
90099,-877,392,292,63,-31,-185,0,0,0
90132,-876,394,287,54,-18,-181,0,0,0
90166,-876,404,290,22,21,-174,0,0,0
90199,-873,405,278,-1,-1,-157,0,0,0
90232,-871,405,273,-3,14,-181,0,0,0
90266,-868,417,270,15,-12,-135,0,0,0
90299,-883,420,267,9,-45,-86,0,0,0
90332,-873,423,273,-38,2,-28,0,0,0
90366,-868,417,272,-97,48,4,0,0,0
90399,-864,399,278,-146,57,33,0,0,0
90432,-866,389,279,-89,13,65,0,0,0
90466,-870,386,278,-96,36,89,0,0,0
90499,-883,383,272,-127,46,97,0,0,0
90532,-894,361,264,-148,39,132,0,0,0
90566,-895,356,263,-97,58,143,0,0,0
90599,-894,345,256,-52,2,100,0,0,0
90632,-894,341,250,-12,28,104,0,0,0
90666,-898,334,248,-7,43,82,0,0,0
90699,-908,343,252,-5,33,35,0,0,0
90732,-901,342,250,33,51,11,0,0,0
90766,-890,349,252,93,39,-47,0,0,0
90799,-902,363,248,120,-13,-47,0,0,0
90832,-910,368,260,119,-73,-31,0,0,0
90866,-902,378,267,168,-12,-49,0,0,0
90899,-891,391,270,149,-5,-36,0,0,0
90932,-887,390,271,145,-54,-32,0,0,0
90966,-882,402,272,133,-62,-27,0,0,0
90999,-884,403,268,48,-13,0,0,0,0
91032,-888,389,263,14,-18,-11,0,0,0
91066,-888,383,261,-1,-44,3,0,0,0
91099,-885,381,259,21,-27,-24,0,0,0
91132,-885,375,255,25,-25,5,0,0,0
91166,-891,368,261,-11,34,-23,0,0,0
91199,-893,373,264,21,32,-12,0,0,0
91232,-882,384,275,-13,28,-23,0,0,0
91266,-876,387,286,20,24,-14,0,0,0
91299,-872,397,289,-11,9,-26,0,0,0
91332,-865,413,283,-126,31,-4,0,0,0
91366,-872,399,269,-261,59,35,0,0,0
91399,-889,371,262,-260,77,92,0,0,0
91432,-895,351,249,-194,53,51,0,0,0
91466,-897,342,248,-93,45,46,0,0,0
91499,-896,347,243,-20,32,80,0,0,0
91532,-896,349,250,0,26,93,0,0,0
91566,-889,352,270,67,-7,58,0,0,0
91599,-894,368,281,131,-35,62,0,0,0
91632,-894,384,286,106,-30,49,0,0,0
91666,-885,391,284,46,22,77,0,0,0
91699,-874,395,272,-7,10,48,0,0,0
91732,-893,388,255,-33,10,63,0,0,0
91766,-903,373,254,20,-29,82,0,0,0
91799,-898,372,250,74,-32,90,0,0,0
91832,-884,376,253,34,-3,86,0,0,0
91866,-893,358,259,7,16,43,0,0,0
91899,-888,360,267,4,49,-6,0,0,0
91932,-883,375,270,-10,42,-79,0,0,0
91966,-879,386,268,-43,53,-128,0,0,0
91999,-877,389,265,-70,47,-109,0,0,0
92032,-883,401,258,-32,17,-98,0,0,0
92066,-884,413,247,-57,41,-49,0,0,0
92099,-896,401,246,-50,49,-19,0,0,0
92132,-899,393,245,-36,27,9,0,0,0
92166,-883,383,252,-60,55,91,0,0,0
92199,-878,368,261,-88,36,99,0,0,0
92232,-880,362,271,-16,29,142,0,0,0
92266,-892,381,280,22,-23,108,0,0,0
92299,-901,389,277,32,-11,137,0,0,0
92332,-895,382,278,-80,-4,181,0,0,0
92366,-891,367,263,-108,-11,213,0,0,0
92399,-902,341,245,-126,-25,170,0,0,0
92432,-915,326,238,-37,-4,82,0,0,0
92466,-913,324,237,34,-61,13,0,0,0
92499,-909,331,244,103,-6,-104,0,0,0
92532,-898,354,247,103,17,-197,0,0,0
92566,-891,381,267,20,73,-221,0,0,0
92599,-875,391,286,-47,125,-327,0,0,0
92632,-874,398,295,-93,80,-302,0,0,0
92666,-876,414,301,-119,56,-189,0,0,0
92699,-871,415,293,-113,40,-96,0,0,0
92732,-878,417,274,-117,17,-6,0,0,0
92766,-885,401,265,-46,-63,71,0,0,0
92799,-890,388,252,-48,-68,141,0,0,0
92832,-902,378,248,-55,-27,202,0,0,0
92866,-898,368,249,-103,32,248,0,0,0
92899,-890,344,270,-186,41,203,0,0,0
92932,-882,325,267,-174,81,157,0,0,0
92966,-887,317,271,-156,42,76,0,0,0
92999,-905,325,275,-112,67,31,0,0,0
93032,-909,332,271,-87,71,22,0,0,0
93066,-900,338,270,-55,33,38,0,0,0
93099,-896,346,262,-12,25,-17,0,0,0
93132,-901,352,260,23,-9,-30,0,0,0
93166,-892,360,262,42,5,-1,0,0,0
93199,-891,365,261,8,40,29,0,0,0
93232,-896,348,264,19,23,37,0,0,0
93266,-896,348,270,31,-1,-36,0,0,0
93299,-900,346,274,56,-35,-3,0,0,0
93332,-899,350,275,43,24,-12,0,0,0
93366,-899,351,272,60,3,3,0,0,0
93399,-895,356,270,40,36,-59,0,0,0
93432,-888,364,270,81,2,-62,0,0,0
93466,-886,378,268,92,-14,-44,0,0,0
93499,-889,368,254,8,0,7,0,0,0
93532,-900,361,263,18,11,3,0,0,0
93566,-902,373,275,113,-24,-15,0,0,0
93599,-888,391,265,100,-49,-17,0,0,0
93632,-882,390,292,-19,-17,-4,0,0,0
93666,-881,401,285,-69,-1,26,0,0,0
93699,-869,376,274,-123,-14,45,0,0,0
93732,-888,365,271,27,-60,66,0,0,0
93766,-902,380,267,162,-141,153,0,0,0
93799,-897,377,263,94,-113,208,0,0,0
93832,-895,349,267,12,-66,255,0,0,0
93866,-887,317,262,-38,-31,189,0,0,0
93899,-898,307,252,-57,7,90,0,0,0
93932,-915,303,257,34,28,-8,0,0,0
93966,-897,325,287,160,-67,-45,0,0,0
93999,-893,355,284,210,-50,-84,0,0,0
94032,-885,373,273,242,-81,-117,0,0,0
94066,-883,398,272,214,-56,-103,0,0,0
94099,-885,389,289,202,-72,-116,0,0,0
94132,-887,383,286,215,-77,-114,0,0,0
94166,-870,369,280,168,-58,-92,0,0,0
94199,-868,367,270,211,-50,-101,0,0,0
94232,-889,385,272,240,-76,-127,0,0,0
94266,-894,401,270,235,-48,-150,0,0,0
94299,-879,410,271,191,-18,-103,0,0,0
94332,-870,407,268,101,26,-35,0,0,0
94366,-877,383,270,100,-22,32,0,0,0
94399,-874,391,271,128,-44,47,0,0,0
94432,-881,385,275,98,-52,19,0,0,0
94466,-893,364,282,89,-35,17,0,0,0
94499,-891,371,276,153,-37,7,0,0,0
94532,-881,392,281,136,-32,-34,0,0,0
94566,-870,396,280,128,-20,5,0,0,0
94599,-868,397,273,105,-12,-34,0,0,0
94632,-872,407,278,75,-30,-16,0,0,0
94666,-883,402,278,38,-4,7,0,0,0
94699,-893,407,286,45,-49,26,0,0,0
94732,-889,406,285,73,-30,51,0,0,0
94766,-882,402,283,74,-81,73,0,0,0
94799,-885,385,279,121,-124,55,0,0,0
94832,-887,382,271,125,-115,83,0,0,0
94866,-881,382,258,134,-98,58,0,0,0
94899,-880,372,258,100,-71,41,0,0,0
94932,-882,367,260,115,-60,-31,0,0,0
94966,-880,372,260,153,-39,-73,0,0,0
94999,-885,380,262,127,-20,-114,0,0,0
95032,-902,378,274,130,-2,-133,0,0,0
95066,-894,351,325,125,-31,-120,0,0,0
95099,-885,407,296,246,-76,-109,0,0,0
95132,-882,387,300,136,-123,-153,0,0,0
95166,-892,379,304,143,-113,-88,0,0,0
95199,-888,386,297,166,-188,-76,0,0,0
95232,-887,380,289,113,-120,-62,0,0,0
95266,-885,372,282,169,-168,-76,0,0,0
95299,-882,367,272,181,-177,-85,0,0,0
95332,-877,380,268,172,-112,-67,0,0,0
95366,-875,391,275,143,-91,-55,0,0,0
95399,-868,393,280,105,-71,-41,0,0,0
95432,-858,393,287,101,-76,-43,0,0,0
95466,-866,392,300,80,-64,-18,0,0,0
95499,-869,390,303,48,-20,28,0,0,0
95532,-871,390,306,22,-47,56,0,0,0
95566,-876,383,306,7,-34,105,0,0,0
95599,-886,377,306,12,-86,75,0,0,0
95632,-878,369,300,37,-82,100,0,0,0
95666,-871,365,299,42,-37,94,0,0,0
95699,-865,364,293,18,-46,84,0,0,0
95732,-873,366,295,14,-26,75,0,0,0
95766,-874,359,299,18,-24,65,0,0,0
95799,-876,364,295,37,-8,4,0,0,0
95832,-871,371,295,27,32,19,0,0,0
95866,-866,374,301,12,41,3,0,0,0
95899,-872,384,296,-5,46,39,0,0,0
95932,-875,388,300,43,-2,6,0,0,0
95966,-877,390,307,33,11,25,0,0,0
95999,-873,380,307,1,-7,65,0,0,0
96032,-871,380,309,26,-17,60,0,0,0
96066,-875,374,307,31,-9,35,0,0,0
96099,-871,379,298,59,-42,24,0,0,0
96132,-878,383,300,48,-36,24,0,0,0
96166,-869,382,299,16,8,53,0,0,0
96199,-865,381,297,3,-3,45,0,0,0
96232,-865,383,306,48,-11,33,0,0,0
96266,-867,391,306,52,-10,13,0,0,0
96299,-869,396,308,65,-2,11,0,0,0
96332,-870,398,311,24,14,69,0,0,0
96366,-863,396,310,17,49,22,0,0,0
96399,-862,401,308,5,-3,56,0,0,0
96432,-861,397,306,22,-23,11,0,0,0
96466,-862,397,302,-2,29,1,0,0,0
96499,-870,401,303,-21,49,-29,0,0,0
96532,-872,399,299,-49,32,-13,0,0,0
96566,-867,401,297,-72,70,-14,0,0,0
96599,-866,397,293,-62,94,-65,0,0,0
96632,-869,392,294,-71,62,-40,0,0,0
96666,-882,392,293,-84,66,-5,0,0,0
96699,-901,389,297,-34,2,2,0,0,0
96732,-896,382,303,-19,33,26,0,0,0
96766,-882,374,306,33,-10,7,0,0,0
96799,-873,373,309,73,-20,-2,0,0,0
96832,-877,372,311,71,-56,34,0,0,0
96866,-870,376,307,69,-58,-11,0,0,0
96899,-869,378,300,29,-65,-37,0,0,0
96932,-868,375,292,25,-51,-65,0,0,0
96966,-867,379,288,13,-17,-94,0,0,0
96999,-873,386,283,0,-19,-73,0,0,0
97032,-879,386,283,8,-17,-73,0,0,0
97066,-880,394,293,61,3,-28,0,0,0
97099,-870,398,299,94,-7,-44,0,0,0
97132,-859,394,311,75,5,4,0,0,0
97166,-858,388,318,33,-8,1,0,0,0
97199,-852,390,317,-3,7,19,0,0,0
97232,-865,389,311,-61,50,20,0,0,0
97266,-874,387,306,-32,8,11,0,0,0
97299,-876,389,299,10,4,33,0,0,0
97332,-876,379,294,-24,31,65,0,0,0
97366,-880,370,296,-34,30,74,0,0,0
97399,-877,362,306,-22,27,41,0,0,0
97432,-874,356,312,-26,22,67,0,0,0
97466,-873,352,322,12,37,-14,0,0,0
97499,-873,363,322,-13,32,-11,0,0,0
97532,-878,378,323,-10,30,-51,0,0,0
97566,-876,384,317,-31,32,-23,0,0,0
97599,-871,389,312,-26,24,-6,0,0,0
97632,-876,386,305,-26,-19,4,0,0,0
97666,-878,379,304,-57,6,24,0,0,0
97699,-877,367,309,-53,12,55,0,0,0
97732,-880,359,307,-30,23,39,0,0,0
97766,-879,361,310,-34,72,3,0,0,0
97799,-885,358,311,1,25,-45,0,0,0
97832,-885,365,317,-1,4,-15,0,0,0
97866,-877,368,317,27,-34,17,0,0,0
97899,-874,369,312,1,-36,33,0,0,0
97932,-875,367,311,20,-49,7,0,0,0
97966,-869,363,308,59,-13,37,0,0,0
97999,-867,366,303,35,-14,11,0,0,0
98032,-866,373,303,8,20,-9,0,0,0
98066,-870,378,301,-11,17,-4,0,0,0
98099,-870,380,298,4,5,-9,0,0,0
98132,-872,383,300,-1,19,16,0,0,0
98166,-877,377,303,-20,50,50,0,0,0
98199,-883,368,312,-11,32,54,0,0,0
98232,-886,361,315,-16,24,48,0,0,0
98266,-882,356,319,1,-8,26,0,0,0
98299,-878,358,316,23,-33,-12,0,0,0
98332,-880,365,311,16,7,-2,0,0,0
98366,-882,367,304,25,13,-8,0,0,0
98399,-875,375,300,27,25,3,0,0,0
98432,-872,376,305,4,-1,-58,0,0,0
98466,-872,380,301,46,-6,4,1,0,0
98499,-870,381,301,-3,19,11,1,0,0
98532,-869,379,303,6,57,47,1,0,0
98566,-880,376,304,-36,23,1,1,0,0
98599,-881,372,308,14,19,37,1,0,0
98632,-875,366,310,3,24,11,1,0,0
98666,-875,365,307,-22,37,22,1,0,0
98699,-877,371,307,-20,44,24,1,0,0
98732,-877,373,306,-21,30,7,1,0,0
98766,-875,377,305,-16,4,24,1,0,0
98799,-873,380,306,-22,28,18,1,0,0
98832,-877,379,303,-62,44,34,1,0,0
98866,-876,380,306,-45,57,42,1,0,0
98899,-868,385,303,-85,65,24,1,0,0
98932,-878,381,304,-74,26,54,1,0,0
98966,-880,379,310,-60,39,61,1,0,0
98999,-876,382,305,-101,60,81,1,0,0
99032,-877,374,299,-114,45,67,1,0,0
99066,-871,375,297,-177,60,31,1,0,0
99099,-871,373,289,-162,71,29,1,0,0
99132,-879,371,286,-167,79,59,1,0,0
99166,-897,374,297,-175,83,57,1,0,0
99199,-878,362,301,-146,68,37,1,0,0
99232,-858,356,309,-147,76,91,1,0,0
99266,-841,346,296,-79,72,106,1,0,0
99299,-831,360,283,-25,56,112,1,0,0
99332,-842,361,266,-104,120,121,1,0,0
99366,-890,398,259,-250,248,54,1,0,0
99399,-889,399,262,-404,407,-13,1,0,0
99432,-877,437,283,-509,464,-117,1,0,0
99466,-888,421,290,-616,430,6,1,0,0
99499,-917,381,310,-474,335,158,1,0,0
99532,-934,360,322,-268,167,292,1,0,0
99566,-954,367,329,-235,53,382,1,0,0
99599,-940,330,322,-195,-41,339,1,0,0
99632,-920,315,294,-151,-74,303,1,0,0
99666,-896,311,267,-141,-63,193,1,0,0
99699,-883,317,244,-132,-3,75,1,0,0
99732,-868,345,247,-204,24,-56,1,0,0
99766,-869,329,230,-197,22,-124,1,0,0
99799,-892,329,239,-96,20,-182,1,0,0
99832,-881,343,253,15,70,-143,1,0,0
99866,-897,365,283,53,18,-135,1,0,0
99899,-878,344,300,183,-23,-30,1,0,0
99932,-892,386,325,336,-69,81,1,0,0
99966,-911,389,326,281,-137,222,1,0,0
99999,-907,365,317,226,-135,291,1,0,0
100032,-913,351,306,184,-118,277,1,0,0
100066,-890,365,291,95,-18,91,1,0,0
100099,-853,374,286,-132,72,-55,1,0,0
100132,-858,360,276,-254,96,-124,1,0,0
100166,-890,340,279,-184,59,-109,1,0,0
100199,-909,347,279,19,-36,-87,1,0,0
100232,-904,364,277,256,-105,-58,1,0,0
100266,-876,400,283,337,-124,-46,1,0,0
100299,-847,423,285,262,-127,10,1,0,0
100332,-853,429,291,139,-66,37,1,0,0
100366,-869,416,295,71,-96,105,1,0,0
100399,-888,384,289,163,-122,227,1,0,0
100432,-896,368,290,241,-151,251,1,0,0
100466,-886,351,289,207,-161,268,1,0,0
100499,-864,334,288,172,-106,208,1,0,0
100532,-858,314,289,135,-45,85,1,0,0
100566,-853,309,288,236,-8,-32,1,0,0
100599,-858,340,291,302,-6,-212,1,0,0
100632,-855,380,304,372,18,-271,1,0,0
100666,-848,425,307,370,28,-255,1,0,0
100699,-837,459,307,276,40,-192,1,0,0
100732,-835,468,316,184,66,-95,1,0,0
100766,-819,460,294,130,34,-34,1,0,0
100799,-803,435,274,-69,91,14,1,0,0
100832,-834,406,264,-285,165,69,1,0,0
100866,-935,394,263,-349,229,4,1,0,0
100899,-977,367,284,-304,241,-51,1,0,0
100932,-940,336,273,-65,152,-99,1,0,0
100966,-934,379,288,48,138,-196,1,0,0
100999,-909,412,294,103,94,-237,1,0,0
101032,-880,443,281,61,62,-218,1,0,0
101066,-876,464,264,-82,82,-151,1,0,0
101099,-857,440,237,-162,35,-102,1,0,0
101132,-844,415,196,-164,26,-39,1,0,0
101166,-853,410,162,-135,62,8,1,0,0
101199,-843,388,140,-123,104,81,1,0,0
101232,-834,376,127,-115,160,133,1,0,0
101266,-845,388,144,-168,288,76,1,0,0
101299,-880,402,173,-268,391,94,1,0,0
101332,-880,393,189,-374,411,98,1,0,0
101366,-936,409,204,-401,448,56,1,0,0
101399,-959,410,238,-460,495,82,1,0,0
101432,-942,399,256,-517,480,107,1,0,0
101466,-973,372,320,-671,443,135,1,0,0
101499,-1001,352,339,-714,284,111,1,0,0
101532,-982,324,257,-788,192,100,1,0,0
101566,-933,299,212,-689,107,65,1,0,0
101599,-888,299,185,-479,25,38,1,0,0
101632,-878,331,163,-286,31,-42,1,0,0
101666,-885,354,149,-316,31,-19,1,0,0
101699,-900,371,144,-298,50,-8,1,0,0
101732,-912,388,147,-346,72,38,1,0,0
101766,-930,389,161,-411,98,92,1,0,0
101799,-957,379,178,-478,151,133,1,0,0
101832,-959,367,214,-536,186,197,1,0,0
101866,-954,345,240,-585,135,186,1,0,0
101899,-968,326,252,-646,113,224,1,0,0
101932,-958,285,257,-648,89,146,1,0,0
101966,-929,250,243,-506,-35,126,1,0,0
101999,-933,275,234,-258,-84,8,1,0,0
102032,-966,324,208,-98,-244,-46,1,0,0
102066,-973,335,191,-8,-288,-60,1,0,0
102099,-949,354,197,51,-255,0,1,0,0
102132,-890,356,209,11,-130,88,1,0,0
102166,-857,343,229,-71,-32,93,1,0,0
102199,-849,335,235,-59,48,93,1,0,0
102232,-855,328,243,-45,41,89,1,0,0
102266,-860,336,258,58,28,89,1,0,0
102299,-842,356,279,96,27,93,1,0,0
102332,-845,378,294,30,93,126,1,0,0
102366,-863,385,307,-31,103,155,1,0,0
102399,-876,369,303,-107,107,230,1,0,0
102432,-884,350,287,-129,56,239,1,0,0
102466,-890,333,268,-78,72,230,1,0,0
102499,-883,314,256,-101,88,255,1,0,0
102532,-880,286,250,-132,138,232,1,0,0
102566,-893,258,269,-85,157,182,1,0,0
102599,-907,246,288,31,111,94,1,0,0
102632,-926,258,301,153,87,61,1,0,0
102666,-949,285,316,256,63,18,1,0,0
102699,-952,326,337,383,14,-44,1,0,0
102732,-942,355,346,417,-48,-100,1,0,0
102766,-911,369,334,447,-152,2,1,0,0
102799,-836,355,305,419,-181,51,1,0,0
102832,-805,342,280,316,-182,61,1,0,0
102866,-849,351,276,281,-158,18,1,0,0
102899,-836,364,252,232,-178,11,1,0,0
102932,-801,344,220,129,-250,26,1,0,0
102966,-860,338,212,100,-193,37,1,0,0
102999,-916,352,202,267,-233,59,1,0,0
103032,-1006,402,180,379,-247,1,1,0,0
103066,-1071,405,220,614,-218,-22,1,0,0
103099,-1047,454,306,977,-379,-194,1,0,0
103132,-936,522,207,567,-307,-234,1,0,0
103166,-856,488,231,242,-62,-223,1,0,0
103199,-810,478,268,193,-30,-214,1,0,0
103232,-797,466,202,150,-63,-183,1,0,0
103266,-838,458,173,104,-105,-196,1,0,0
103299,-906,444,173,200,-170,-179,1,0,0
103332,-917,445,207,126,-91,-144,1,0,0
103366,-871,400,238,93,61,-31,1,0,0
103399,-873,419,281,100,192,-92,1,0,0
103432,-862,426,311,60,132,-93,1,0,0
103466,-842,402,287,44,30,-69,1,0,0
103499,-835,409,278,82,-11,-98,1,0,0
103532,-817,429,281,31,-21,3,1,0,0
103566,-843,420,257,-98,2,76,1,0,0
103599,-888,398,228,-218,27,106,1,0,0
103632,-895,358,230,-271,56,106,1,0,0
103666,-877,333,231,-205,48,137,1,0,0
103699,-907,325,243,-118,21,87,1,0,0
103732,-947,334,273,37,-5,-6,1,0,0
103766,-967,358,295,148,-133,-61,1,0,0
103799,-967,387,276,129,-173,-62,1,0,0
103832,-920,380,259,86,-141,-49,1,0,0
103866,-879,374,252,128,-160,-63,1,0,0
103899,-855,381,244,178,-95,-40,1,0,0
103932,-842,382,226,142,-102,2,1,0,0
103966,-840,376,235,130,-54,13,1,0,0
103999,-858,389,250,114,42,-14,1,0,0
104032,-856,391,274,61,49,14,1,0,0
104066,-860,397,299,23,79,3,1,0,0
104099,-880,423,322,-40,62,-35,1,0,0
104132,-886,419,331,-171,72,-18,1,0,0
104166,-889,407,320,-314,100,5,1,0,0
104199,-895,391,293,-444,113,-12,1,0,0
104232,-903,366,271,-492,132,-56,1,0,0
104266,-895,355,253,-462,122,-87,1,0,0
104299,-877,341,240,-439,167,-64,1,0,0
104332,-880,342,242,-403,203,-28,1,0,0
104366,-893,341,235,-378,183,-19,1,0,0
104399,-921,338,220,-350,151,14,1,0,0
104432,-944,324,215,-283,78,57,1,0,0
104466,-947,304,220,-152,81,45,1,0,0
104499,-919,295,234,-68,98,81,1,0,0
104532,-915,296,248,-45,52,46,1,0,0
104566,-913,289,259,44,23,34,1,0,0
104599,-902,290,262,123,-27,18,1,0,0
104632,-907,313,257,145,-28,-38,1,0,0
104666,-922,330,257,141,-42,-36,1,0,0
104699,-928,335,264,167,-44,-34,1,0,0
104732,-923,345,273,136,-74,16,1,0,0
104766,-910,348,271,81,-77,11,1,0,0
104799,-893,346,272,100,-73,-2,1,0,0
104832,-892,354,266,48,-13,5,1,0,0
104866,-893,363,266,1,-37,-4,1,0,0
104899,-898,367,269,-37,-13,-2,1,0,0
104932,-900,360,273,-87,-2,5,1,0,0
104966,-901,349,278,-119,5,68,1,0,0
104999,-903,331,275,-140,50,42,1,0,0
105032,-903,314,273,-112,44,50,1,0,0
105066,-902,306,272,-93,61,3,1,0,0
105099,-895,304,271,-20,13,20,1,0,0
105132,-892,305,273,27,30,14,1,0,0
105166,-895,320,277,40,67,-27,1,0,0
105199,-891,340,280,9,66,-12,1,0,0
105232,-891,345,283,-7,77,27,1,0,0
105266,-885,335,278,-43,57,16,1,0,0
105299,-884,325,268,-64,48,22,1,0,0
105332,-895,324,266,-70,60,57,1,0,0
105366,-911,325,269,-68,59,26,1,0,0
105399,-941,333,278,-45,59,32,1,0,0
105432,-951,347,282,-49,49,-27,1,0,0
105466,-928,351,280,-122,10,16,1,0,0
105499,-910,358,268,-163,31,26,1,0,0
105532,-900,353,258,-207,64,50,1,0,0
105566,-885,349,247,-227,55,76,1,0,0
105599,-877,336,239,-258,67,106,1,0,0
105632,-897,321,238,-257,106,61,1,0,0
105666,-914,316,252,-240,129,124,1,0,0
105699,-916,311,260,-226,145,113,1,0,0
105732,-928,310,262,-207,100,59,1,0,0
105766,-928,310,259,-118,48,83,1,0,0
105799,-904,307,254,-39,56,65,1,0,0
105832,-884,321,248,-33,70,92,1,0,0
105866,-885,339,248,-53,111,81,1,0,0
105899,-890,354,248,-129,142,65,1,0,0
105932,-910,367,256,-191,178,82,1,0,0
105966,-921,349,264,-331,175,53,1,0,0
105999,-921,346,262,-400,222,45,1,0,0
106032,-924,327,253,-438,189,62,1,0,0
106066,-920,308,242,-382,124,76,1,0,0
106099,-924,300,235,-294,80,87,1,0,0
106132,-943,285,229,-270,19,157,1,0,0
106166,-961,259,234,-231,-21,159,1,0,0
106199,-976,238,245,-160,-52,137,1,0,0
106232,-979,206,253,-12,-125,66,1,0,0
106266,-956,198,246,273,-254,-12,1,0,0
106299,-931,233,243,506,-282,-116,1,0,0
106332,-923,276,242,587,-304,-156,1,0,0
106366,-918,297,247,654,-356,-163,1,0,0
106399,-917,320,253,662,-352,-146,1,0,0
106432,-906,343,266,638,-314,-146,1,0,0
106466,-899,343,269,553,-254,-156,1,0,0
106499,-898,346,267,566,-234,-145,1,0,0
106532,-892,361,270,566,-254,-202,1,0,0
106566,-872,376,273,528,-234,-158,1,0,0
106599,-874,382,273,484,-222,-160,1,0,0
106632,-876,377,270,436,-187,-119,1,0,0
106666,-876,376,270,424,-186,-52,1,0,0
106699,-875,385,273,396,-116,-57,1,0,0
106732,-877,378,274,353,-97,-11,1,0,0
106766,-881,372,275,317,-102,-47,1,0,0
106799,-895,364,276,290,-65,-21,1,0,0
106832,-904,352,277,281,-63,-8,1,0,0
106866,-907,352,278,322,-75,-54,1,0,0
106899,-920,351,280,250,-54,-75,1,0,0
106932,-898,333,283,313,-117,-58,1,0,0
106966,-876,330,288,326,-72,-64,1,0,0
106999,-873,333,280,303,-73,-47,1,0,0
107032,-877,340,283,359,-89,-52,1,0,0
107066,-874,357,274,447,-110,-54,1,0,0
107099,-850,392,283,511,-137,-65,1,0,0
107132,-824,416,285,508,-157,-33,1,0,0
107166,-840,458,288,401,-82,2,1,0,0
107199,-886,491,290,174,1,7,1,0,0
107232,-878,480,300,-148,99,85,1,0,0
107266,-856,443,288,-265,189,213,1,0,0
107299,-885,424,285,-302,166,281,1,0,0
107332,-871,375,255,-363,173,363,1,0,0
107366,-853,346,247,-444,198,316,1,0,0
107399,-872,359,279,-424,278,136,1,0,0
107432,-922,333,282,-405,214,-13,1,0,0
107466,-947,316,304,-200,153,-20,1,0,0
107499,-921,354,302,-95,112,-19,1,0,0
107532,-890,383,290,-145,61,-22,1,0,0
107566,-878,379,264,-213,47,-44,1,0,0
107599,-879,380,247,-242,60,-70,1,0,0
107632,-877,385,239,-244,66,-46,1,0,0
107666,-889,387,229,-286,109,-14,1,0,0
