Time (ms),Accelerometer X (mGal),Accelerometer Y (mGal),Accelerometer Z (mGal),Gyro X,Gyro Y,Gyro Z,Magnetic X,Magnetic Y,Magnetic Z,Locomotion
81649, -0.9061279, 0.29919434, 0.26000977, -6.04248, 2.6855466, 6.6528316, 54.0, 12.0, -2.0, 0
81669, -0.9036865, 0.31689453, 0.24511719, -0.793457, 2.9907224, 5.615234, 54.0, 12.0, -2.0, 0
81696, -0.8955078, 0.27856445, 0.23583984, 1.3427733, 2.868652, 5.981445, 54.0, 8.0, -6.0, 0
81718, -0.8881836, 0.29431152, 0.23388672, 3.4790037, 3.0517576, 1.3427733, 54.0, 8.0, -6.0, 0
81736, -0.90063477, 0.29418945, 0.23937988, 5.0659175, 2.5024414, -0.97656244, 54.0, 8.0, -6.0, 0
81756, -0.89941406, 0.29553223, 0.23840332, 5.249023, 2.1362305, -0.9155273, 54.0, 8.0, -6.0, 0
81775, -0.8964844, 0.2932129, 0.23376465, 4.8828125, 0.61035156, 0.122070305, 54.0, 8.0, -6.0, 0
81797, -0.8968506, 0.33374023, 0.23400879, 8.728027, -1.5258788, -1.6479491, 54.0, 11.0, -4.0, 0
81822, -0.89868164, 0.30908203, 0.23754883, 11.9018545, -3.0517576, -4.3945312, 54.0, 11.0, -4.0, 0
81845, -0.90515137, 0.28967285, 0.2388916, 9.460449, -3.0517576, -3.2958982, 54.0, 11.0, -4.0, 0
81866, -0.9156494, 0.29736328, 0.24841309, 8.422852, -2.1362305, -0.793457, 54.0, 11.0, -4.0, 0
81884, -0.9168701, 0.29711914, 0.25927734, 8.728027, -1.0986328, -0.48828122, 54.0, 11.0, -4.0, 0
81904, -0.9139404, 0.28552246, 0.25976562, 7.629394, -0.061035153, -0.793457, 56.0, 9.0, -4.0, 0
81922, -0.9090576, 0.29040527, 0.25170898, 7.0190425, 0.8544921, -0.3662109, 56.0, 9.0, -4.0, 0
81950, -0.90405273, 0.32043457, 0.24389648, 10.31494, 1.0986328, -2.868652, 56.0, 9.0, -4.0, 0
81972, -0.90026855, 0.31396484, 0.24365234, 11.230468, 0.7324218, -5.737304, 56.0, 9.0, -4.0, 0
81994, -0.9029541, 0.30419922, 0.24816895, 11.96289, 0.7324218, -7.8735347, 56.0, 9.0, -4.0, 0
82012, -0.9088135, 0.31323242, 0.26000977, 12.695312, 1.6479491, -10.437011, 54.0, 11.0, 0.0, 0
82040, -0.8918457, 0.31225586, 0.24499512, 9.765625, 0.48828122, -12.512206, 54.0, 11.0, 0.0, 0
82060, -0.88256836, 0.31970215, 0.23901367, 10.131835, -0.122070305, -12.023925, 54.0, 11.0, 0.0, 0
82078, -0.8845215, 0.31896973, 0.2409668, 13.0615225, -1.7089843, -9.82666, 54.0, 11.0, 0.0, 0
82105, -0.8931885, 0.3190918, 0.24768066, 11.352538, -1.8920897, -10.009766, 53.0, 11.0, -4.0, 0
82127, -0.892334, 0.28173828, 0.24682617, 7.93457, -2.9296873, -7.3852534, 53.0, 11.0, -4.0, 0
82150, -0.8907471, 0.2803955, 0.26000977, 6.469726, -3.2958982, -5.1269526, 53.0, 11.0, -4.0, 0
82171, -0.9001465, 0.3010254, 0.2697754, 7.3242183, -3.4179685, -3.3569334, 53.0, 11.0, -4.0, 0
82191, -0.9119873, 0.27294922, 0.26611328, 6.103515, -2.380371, -1.6479491, 53.0, 11.0, -4.0, 0
82213, -0.91552734, 0.2915039, 0.2619629, 7.690429, -0.793457, -1.7089843, 55.0, 13.0, -3.0, 0
82238, -0.91101074, 0.30529785, 0.28063965, 13.305663, -1.2817382, -0.24414061, 55.0, 13.0, -3.0, 0
82262, -0.9034424, 0.28198242, 0.2746582, 9.460449, 0.0, 1.159668, 55.0, 13.0, -3.0, 0
82284, -0.8963623, 0.30859375, 0.27160645, 4.5166016, 0.42724606, 1.159668, 55.0, 13.0, -3.0, 0
82309, -0.8878174, 0.32019043, 0.26623535, 5.7983394, -0.48828122, 2.0141602, 59.0, 10.0, -2.0, 0
82331, -0.88513184, 0.2993164, 0.26586914, 3.9062498, -0.3662109, 3.234863, 59.0, 10.0, -2.0, 0
82350, -0.8840332, 0.30236816, 0.2770996, -0.48828122, -0.18310545, 3.4790037, 59.0, 10.0, -2.0, 0
82374, -0.8901367, 0.31469727, 0.2783203, -2.4414062, -0.122070305, 3.1127927, 59.0, 10.0, -2.0, 0
82397, -0.9017334, 0.32421875, 0.2677002, 2.4414062, -0.30517578, 2.7465818, 57.0, 13.0, -3.0, 0
82420, -0.9017334, 0.31970215, 0.27355957, 6.2255855, -0.30517578, 1.9531249, 57.0, 13.0, -3.0, 0
82443, -0.90771484, 0.3104248, 0.26953125, 6.2255855, 0.122070305, 0.30517578, 57.0, 13.0, -3.0, 0
82461, -0.9139404, 0.30944824, 0.26757812, 4.638672, 0.67138666, -1.159668, 57.0, 13.0, -3.0, 0
82479, -0.9123535, 0.3137207, 0.26708984, 4.333496, 0.9155273, -1.4648436, 57.0, 13.0, -3.0, 0
82504, -0.90197754, 0.3128662, 0.26757812, 5.0659175, 0.97656244, -0.97656244, 59.0, 10.0, 0.0, 0
82522, -0.8886719, 0.30871582, 0.26489258, 4.3945312, 0.9155273, -1.5258788, 59.0, 10.0, 0.0, 0
82548, -0.883667, 0.31188965, 0.2578125, 4.1503906, 0.24414061, -4.5776367, 59.0, 10.0, 0.0, 0
82570, -0.8937988, 0.31506348, 0.26464844, 7.202148, -0.24414061, -5.981445, 59.0, 10.0, 0.0, 0
82591, -0.8967285, 0.29943848, 0.27026367, 7.690429, -0.48828122, -2.807617, 59.0, 10.0, 0.0, 0
82613, -0.8880615, 0.29455566, 0.26940918, 6.103515, -0.42724606, -1.6479491, 55.0, 13.0, -2.0, 0
82637, -0.89538574, 0.30151367, 0.26257324, 4.3945312, -0.97656244, -4.0893555, 55.0, 13.0, -2.0, 0
82655, -0.90063477, 0.30297852, 0.26281738, 4.0283203, -1.8310546, -4.211426, 55.0, 13.0, -2.0, 0
82673, -0.895874, 0.30200195, 0.27416992, 3.4179685, -2.1972656, -0.8544921, 55.0, 13.0, -2.0, 0
82699, -0.89208984, 0.29553223, 0.2734375, 2.319336, -2.5024414, -0.67138666, 56.0, 10.0, -1.0, 0
82718, -0.8947754, 0.31066895, 0.2668457, -0.3662109, -2.5634763, -1.2817382, 56.0, 10.0, -1.0, 0
82761, -0.8942871, 0.3092041, 0.2755127, 2.7465818, -3.1127927, -1.586914, 56.0, 10.0, -1.0, 0
82779, -0.8897705, 0.30200195, 0.2828369, 1.8920897, -2.868652, -1.2817382, 56.0, 10.0, -1.0, 0
82801, -0.8880615, 0.29467773, 0.2803955, -0.7324218, -1.9531249, -0.48828122, 56.0, 10.0, 0.0, 0
82820, -0.89001465, 0.30981445, 0.2755127, -1.4038085, -1.3427733, 0.061035153, 56.0, 10.0, 0.0, 0
82844, -0.88549805, 0.31103516, 0.27416992, 2.1972656, -1.7089843, 1.3427733, 56.0, 10.0, 0.0, 0
82866, -0.8826904, 0.2956543, 0.28393555, 3.3569334, -1.0986328, 2.6245115, 56.0, 10.0, 0.0, 0
82884, -0.88391113, 0.2919922, 0.28955078, 0.7324218, -0.48828122, 3.6621091, 56.0, 10.0, 0.0, 0
82907, -0.8922119, 0.28833008, 0.28527832, -1.0986328, 0.61035156, 5.0659175, 55.0, 11.0, 0.0, 0
82930, -0.90234375, 0.30664062, 0.28833008, 1.2817382, 1.2207031, 5.187988, 55.0, 11.0, 0.0, 0
82958, -0.89538574, 0.2980957, 0.2869873, 1.4038085, 2.4414062, 4.9438477, 55.0, 11.0, 0.0, 0
82979, -0.88635254, 0.29333496, 0.28637695, 0.18310545, 2.807617, 4.8217773, 55.0, 11.0, 0.0, 0
82997, -0.8876953, 0.2989502, 0.28564453, -2.868652, 3.9062498, 4.211426, 55.0, 11.0, 0.0, 0
83020, -0.8942871, 0.30700684, 0.29016113, -3.967285, 4.3945312, 4.3945312, 56.0, 11.0, 1.0, 0
83039, -0.88793945, 0.31420898, 0.29260254, -5.5541987, 5.0659175, 4.211426, 56.0, 11.0, 1.0, 0
83062, -0.888916, 0.3137207, 0.29919434, -4.4555664, 5.676269, 1.8920897, 56.0, 11.0, 1.0, 0
83081, -0.9071045, 0.31103516, 0.3149414, -5.249023, 7.995605, 0.30517578, 56.0, 11.0, 1.0, 0
83104, -0.9119873, 0.3218994, 0.32470703, -4.699707, 10.803222, 0.67138666, 56.0, 10.0, -2.0, 0
83125, -0.9154053, 0.33154297, 0.3215332, -1.7089843, 12.878417, 1.159668, 56.0, 10.0, -2.0, 0
83143, -0.9145508, 0.31323242, 0.3157959, -2.7465818, 14.892577, 0.7324218, 56.0, 10.0, -2.0, 0
83167, -0.90856934, 0.31518555, 0.31896973, -4.699707, 16.723633, 0.61035156, 56.0, 10.0, -2.0, 0
83192, -0.9024658, 0.32788086, 0.33850098, 0.97656244, 18.188477, 2.2583008, 56.0, 10.0, -2.0, 0
83217, -0.88012695, 0.3116455, 0.3363037, 5.5541987, 19.042969, 3.0517576, 56.0, 9.0, -3.0, 0
83240, -0.8841553, 0.29040527, 0.34399414, 8.300781, 21.606443, 2.0751953, 56.0, 9.0, -3.0, 0
83262, -0.8967285, 0.2861328, 0.352417, 6.774902, 23.864744, -0.30517578, 56.0, 9.0, -3.0, 0
83279, -0.91174316, 0.28930664, 0.35595703, 5.615234, 24.841307, -1.159668, 56.0, 9.0, -3.0, 0
83300, -0.91589355, 0.27575684, 0.35827637, 2.6855466, 25.878904, -1.0986328, 56.0, 13.0, 0.0, 0
83322, -0.8985596, 0.28552246, 0.36120605, 0.42724606, 26.611326, -1.7089843, 56.0, 13.0, 0.0, 0
83344, -0.8746338, 0.28796387, 0.35791016, 3.7231443, 25.878904, -1.4648436, 56.0, 13.0, 0.0, 0
83367, -0.859375, 0.28198242, 0.36694336, 7.690429, 24.53613, -0.9155273, 56.0, 13.0, 0.0, 0
83389, -0.8449707, 0.24145508, 0.38623047, 4.5776367, 21.545408, 2.5024414, 56.0, 13.0, 0.0, 0
83409, -0.8338623, 0.23718262, 0.3935547, -4.638672, 19.40918, 3.3569334, 57.0, 9.0, -1.0, 0
83433, -0.82629395, 0.26586914, 0.3955078, -13.0615225, 16.723633, 2.4414062, 57.0, 9.0, -1.0, 0
83456, -0.829834, 0.29711914, 0.39111328, -13.793944, 13.244628, 1.4648436, 57.0, 9.0, -1.0, 0
83476, -0.8544922, 0.31799316, 0.4050293, -9.460449, 10.375976, -0.42724606, 57.0, 9.0, -1.0, 0
83494, -0.84802246, 0.3199463, 0.41711426, -3.5400388, 9.399414, -1.0986328, 57.0, 9.0, -1.0, 0
83514, -0.838501, 0.30944824, 0.41967773, 0.0, 10.31494, 1.4038085, 58.0, 13.0, -2.0, 0
83533, -0.84924316, 0.28308105, 0.41467285, -3.967285, 13.610839, 1.4648436, 58.0, 13.0, -2.0, 0
83573, -0.85424805, 0.34350586, 0.4046631, -5.676269, 17.456055, 1.8920897, 58.0, 13.0, -2.0, 0
83554, -0.8562012, 0.30480957, 0.40881348, -9.094238, 16.845703, 0.5493164, 58.0, 13.0, -2.0, 0
83595, -0.845459, 0.33825684, 0.41711426, 0.67138666, 16.479492, 4.333496, 55.0, 14.0, 1.0, 0
83623, -0.814209, 0.30285645, 0.43066406, 2.319336, 16.113281, 6.408691, 55.0, 14.0, 1.0, 0
83641, -0.7869873, 0.29748535, 0.4227295, -0.30517578, 16.113281, 5.7983394, 55.0, 14.0, 1.0, 0
83660, -0.7623291, 0.3137207, 0.41210938, -0.97656244, 15.8081045, 4.0283203, 55.0, 14.0, 1.0, 0
83682, -0.7557373, 0.31811523, 0.39770508, 5.0659175, 13.244628, 2.6245115, 55.0, 14.0, 1.0, 0
83700, -0.7651367, 0.31140137, 0.3876953, 15.747069, 9.277344, 0.8544921, 55.0, 11.0, 4.0, 0
83725, -0.7817383, 0.3010254, 0.39111328, 23.376463, 4.760742, -1.159668, 55.0, 11.0, 4.0, 0
83743, -0.82592773, 0.2746582, 0.39404297, 23.010252, -0.48828122, -2.6245115, 55.0, 11.0, 4.0, 0
83769, -0.8000488, 0.29943848, 0.359375, 25.756834, -4.272461, -4.1503906, 55.0, 11.0, 4.0, 0
83787, -0.8026123, 0.3034668, 0.33874512, 37.65869, -6.5307612, -4.3945312, 55.0, 11.0, 4.0, 0
83805, -0.84484863, 0.25769043, 0.2705078, 45.95947, -10.864257, -4.0283203, 56.0, 10.0, 0.0, 0
83828, -0.8424072, 0.21801758, 0.2253418, 36.499023, -18.981934, -0.24414061, 56.0, 10.0, 0.0, 0
83846, -0.8123779, 0.23425293, 0.22351074, 30.33447, -23.254393, 1.7700194, 56.0, 10.0, 0.0, 0
83870, -0.8359375, 0.21643066, 0.2434082, 18.615723, -33.996582, 3.0517576, 56.0, 10.0, 0.0, 0
83888, -0.82751465, 0.24438477, 0.27770996, 6.7138667, -48.33984, 0.9155273, 56.0, 10.0, 0.0, 0
83934, -0.83935547, 0.23034668, 0.2685547, 7.93457, -59.997555, -0.7324218, 54.0, 11.0, 5.0, 0
83957, -0.8590088, 0.24487305, 0.2401123, 6.04248, -64.27002, -4.1503906, 54.0, 11.0, 5.0, 0
83975, -0.913208, 0.23254395, 0.2598877, 1.9531249, -69.2749, -6.2866206, 54.0, 11.0, 5.0, 0
83994, -0.98547363, 0.21447754, 0.30615234, -1.4648436, -66.711426, -8.7890625, 54.0, 11.0, 5.0, 0
84019, -0.9984131, 0.25073242, 0.32080078, -1.0375977, -59.631344, -6.2866206, 56.0, 10.0, 3.0, 0
84043, -0.9506836, 0.2998047, 0.25708008, 5.187988, -58.1665, -2.319336, 56.0, 10.0, 3.0, 0
84066, -0.95947266, 0.2677002, 0.24938965, 4.5776367, -56.88476, -0.8544921, 56.0, 10.0, 3.0, 0
84089, -0.9847412, 0.23803711, 0.3687744, 1.3427733, -46.142574, -0.7324218, 56.0, 10.0, 3.0, 0
84110, -0.97924805, 0.27233887, 0.4814453, 10.375976, -28.747557, -1.5258788, 52.0, 9.0, 1.0, 0
84134, -1.0181885, 0.2984619, 0.48327637, 28.19824, -10.0708, -5.249023, 52.0, 9.0, 1.0, 0
84159, -1.0751953, 0.31445312, 0.5773926, 39.489746, 10.498046, -8.483887, 52.0, 9.0, 1.0, 0
84185, -1.1190186, 0.24060059, 0.5933838, 71.10596, 47.424313, 3.2958982, 52.0, 9.0, 1.0, 0
84205, -1.1060791, 0.24182129, 0.53466797, 64.88037, 69.2749, 7.93457, 56.0, 10.0, 2.0, 0
84228, -1.038208, 0.26257324, 0.6279297, 53.710934, 98.388664, 13.000487, 56.0, 10.0, 2.0, 0
84254, -1.033081, 0.24145508, 0.7038574, 56.335445, 117.797844, 15.319823, 56.0, 10.0, 2.0, 0
84272, -1.0578613, 0.18273926, 0.7260742, 50.170895, 136.77979, 18.310547, 56.0, 10.0, 2.0, 0
84294, -1.0782471, 0.1463623, 0.7104492, 31.555174, 152.34375, 17.63916, 56.0, 10.0, 2.0, 0
84312, -1.0787354, 0.1940918, 0.80737305, 19.714355, 168.82323, 13.183593, 58.0, 12.0, 7.0, 0
84334, -1.0802002, 0.23022461, 0.91967773, 26.672361, 187.92723, 11.718749, 58.0, 12.0, 7.0, 0
84357, -1.0708008, 0.14025879, 0.9400635, 31.249998, 207.64159, 17.27295, 58.0, 12.0, 7.0, 0
84378, -1.0383301, 0.06384277, 0.87231445, 2.0141602, 223.20555, 21.545408, 58.0, 12.0, 7.0, 0
84399, -0.8519287, 0.30004883, 0.92285156, -20.080564, 229.98045, 9.460449, 58.0, 12.0, 7.0, 0
84422, -0.7821045, 0.265625, 1.0135498, 6.896972, 235.83983, 14.343261, 56.0, 17.0, 16.0, 0
84445, -0.748291, 0.18432617, 1.0012207, 25.695799, 241.27196, 20.751951, 56.0, 17.0, 16.0, 0
84463, -0.6414795, 0.17553711, 0.84375, 23.803709, 238.0371, 20.62988, 56.0, 17.0, 16.0, 0
84485, -0.48718262, 0.15917969, 0.8043213, -5.187988, 230.04149, 15.86914, 56.0, 17.0, 16.0, 0
84507, -0.4552002, 0.21020508, 0.9250488, -15.380858, 232.36082, 4.333496, 53.0, 10.0, 22.0, 0
84529, -0.42736816, 0.18908691, 0.8800049, -0.42724606, 230.46873, 0.48828122, 53.0, 10.0, 22.0, 0
84549, -0.3557129, 0.111450195, 0.7838135, -5.3710933, 223.99901, 1.6479491, 53.0, 10.0, 22.0, 0
84571, -0.22314453, 0.21350098, 0.68774414, -2.9907224, 204.28465, -7.0190425, 53.0, 10.0, 22.0, 0
84617, -0.12988281, 0.072265625, 0.7813721, 11.352538, 188.72069, -3.173828, 54.0, 5.0, 26.0, 0
84639, 0.0057373047, 0.1274414, 0.6861572, 14.831542, 172.36327, -5.0659175, 54.0, 5.0, 26.0, 0
84666, 0.103271484, 0.11206055, 0.6949463, 6.5307612, 153.50342, -0.24414061, 54.0, 5.0, 26.0, 0
84686, 0.16259766, 0.12121582, 0.72302246, 11.169433, 141.6626, 2.4414062, 54.0, 5.0, 26.0, 0
84703, 0.1907959, 0.075805664, 0.8175049, 20.1416, 138.97705, 4.0283203, 52.0, 3.0, 27.0, 0
84725, 0.25842285, 0.12646484, 0.74121094, 27.648924, 130.3711, 6.5307612, 52.0, 3.0, 27.0, 0
84747, 0.31958008, 0.15808105, 0.65979004, 26.489256, 119.6289, 9.033203, 52.0, 3.0, 27.0, 0
84770, 0.38879395, 0.087524414, 0.6407471, 6.1645503, 110.53466, 7.8735347, 52.0, 3.0, 27.0, 0
84789, 0.4239502, 0.06933594, 0.7342529, -10.437011, 105.77392, 3.3569334, 52.0, 3.0, 27.0, 0
84810, 0.44787598, 0.13671875, 0.78723145, 9.521484, 104.73632, 1.3427733, 51.0, -2.0, 32.0, 0
84834, 0.5496826, 0.1772461, 0.5626221, 48.0957, 91.308586, 5.187988, 51.0, -2.0, 32.0, 0
84856, 0.5649414, 0.076293945, 0.59973145, 25.390623, 85.20507, 7.8735347, 51.0, -2.0, 32.0, 0
84876, 0.59375, -0.006958008, 0.72595215, -11.230468, 84.41161, 9.399414, 51.0, -2.0, 32.0, 0
84898, 0.638916, 0.079589844, 0.6867676, -28.869627, 83.496086, 6.347656, 51.0, -2.0, 32.0, 0
84920, 0.6801758, 0.2705078, 0.6040039, -9.155273, 78.24707, 0.48828122, 53.0, -3.0, 33.0, 0
84942, 0.7019043, 0.16186523, 0.5671387, 30.273436, 68.90869, 2.868652, 53.0, -3.0, 33.0, 0
84964, 0.7252197, 0.0032958984, 0.5749512, 10.986327, 65.85693, 2.9296873, 53.0, -3.0, 33.0, 0
84983, 0.7454834, 0.07946777, 0.58654785, -10.742187, 63.537594, -0.97656244, 53.0, -3.0, 33.0, 0
85001, 0.7562256, 0.18310547, 0.5548096, -2.9907224, 62.744137, -4.760742, 53.0, -6.0, 37.0, 0
85025, 0.772583, 0.15197754, 0.52612305, 6.896972, 60.66894, -7.5073237, 53.0, -6.0, 37.0, 0
85047, 0.7988281, 0.099121094, 0.51904297, 2.868652, 56.27441, -8.972168, 53.0, -6.0, 37.0, 0
85065, 0.81848145, 0.08251953, 0.5435791, -3.173828, 53.344723, -8.361816, 53.0, -6.0, 37.0, 0
85089, 0.81726074, 0.091552734, 0.5625, -4.4555664, 55.297848, -9.033203, 53.0, -6.0, 37.0, 0
85107, 0.8280029, 0.16687012, 0.51416016, 2.0751953, 53.89404, -11.9018545, 48.0, -9.0, 30.0, 0
85137, 0.83361816, 0.111206055, 0.4859619, 6.2255855, 51.208492, -11.413573, 48.0, -9.0, 30.0, 0
85158, 0.8438721, 0.030395508, 0.4777832, -10.620116, 48.0957, -7.995605, 48.0, -9.0, 30.0, 0
85178, 0.8565674, 0.061035156, 0.4572754, -17.944336, 46.264645, -7.8124995, 48.0, -9.0, 30.0, 0
85201, 0.86035156, 0.12927246, 0.46618652, -16.662598, 45.227047, -10.925292, 49.0, -11.0, 34.0, 0
85225, 0.88830566, 0.06555176, 0.36572266, -0.8544921, 39.123535, -11.169433, 49.0, -11.0, 34.0, 0
85246, 0.9003906, 0.056884766, 0.2709961, -1.9531249, 27.526854, -8.483887, 49.0, -11.0, 34.0, 0
85263, 0.91467285, 0.07043457, 0.17602539, 0.61035156, 9.399414, -3.6621091, 49.0, -11.0, 34.0, 0
85282, 0.9154053, 0.026245117, 0.17443848, -0.48828122, -7.5073237, -0.061035153, 49.0, -11.0, 34.0, 0
85304, 0.87072754, -0.014160156, 0.23132324, -8.361816, -18.859863, 2.6245115, 51.0, -15.0, 35.0, 0
85332, 0.86621094, 0.033813477, 0.19726562, -7.5073237, -35.461426, 8.117676, 51.0, -15.0, 35.0, 0
85350, 0.8626709, 0.0435791, 0.19458008, 14.648437, -64.94141, 13.488769, 51.0, -15.0, 35.0, 0
85396, 0.7762451, 0.07507324, 0.24816895, 20.080564, -96.92382, 10.681151, 51.0, -15.0, 35.0, 0
85417, 0.72680664, 0.07507324, 0.3157959, 9.94873, -109.7412, 11.230468, 53.0, -9.0, 35.0, 0
85441, 0.7032471, 0.06677246, 0.3824463, -3.8452146, -118.46923, 11.169433, 53.0, -9.0, 35.0, 0
85459, 0.6878662, 0.13891602, 0.4378662, -1.4038085, -127.01415, 9.521484, 53.0, -9.0, 35.0, 0
85477, 0.65844727, 0.21704102, 0.47338867, 19.104004, -138.48877, 5.4321284, 53.0, -9.0, 35.0, 0
85499, 0.60705566, 0.18859863, 0.475708, 26.733397, -149.78027, 5.310058, 44.0, 1.0, 30.0, 0
85519, 0.56188965, 0.10888672, 0.45495605, -3.967285, -162.41454, 6.103515, 44.0, 1.0, 30.0, 0
85547, 0.42211914, 0.09509277, 0.7952881, -22.827147, -164.48973, -0.67138666, 44.0, 1.0, 30.0, 0
85572, 0.4359131, 0.30639648, 0.69421387, 58.65478, -168.82323, -10.375976, 44.0, 1.0, 30.0, 0
85594, 0.3972168, 0.13110352, 0.5930176, 43.94531, -183.77684, -5.4321284, 44.0, 1.0, 30.0, 0
85616, 0.24584961, -0.29333496, 0.87597656, -51.330563, -181.4575, 7.3242183, 52.0, 5.0, 35.0, 0
85639, 0.14624023, 0.027709961, 1.0462646, -77.57568, -163.3911, -9.033203, 52.0, 5.0, 35.0, 0
85657, 0.21240234, 0.4284668, 0.86938477, 14.709472, -169.1284, -28.137205, 52.0, 5.0, 35.0, 0
85680, 0.15454102, 0.21740723, 0.7344971, 62.988277, -182.4951, -12.817382, 52.0, 5.0, 35.0, 0
85698, 0.09667969, 0.0021972656, 0.73913574, 20.568846, -187.31688, -3.0517576, 52.0, 5.0, 35.0, 0
85717, -0.076416016, -0.17871094, 1.1296387, -33.447266, -173.15672, -5.4321284, 50.0, 10.0, 23.0, 0
85741, -0.17993164, -0.010620117, 1.3562012, 15.0146475, -155.76172, -28.07617, 50.0, 10.0, 23.0, 0
85762, -0.047607422, 0.29577637, 0.8215332, 53.833004, -157.40967, -22.216795, 50.0, 10.0, 23.0, 0
85785, -0.13842773, 0.14147949, 0.7110596, 36.010742, -165.89354, -17.76123, 50.0, 10.0, 23.0, 0
85803, -0.31420898, 0.14562988, 1.0229492, 18.310547, -166.25975, -30.029295, 57.0, 10.0, 22.0, 0
85827, -0.2989502, -0.07397461, 1.024292, 45.410152, -162.47557, -29.235838, 57.0, 10.0, 22.0, 0
85844, -0.30639648, -0.13684082, 0.953125, -9.887695, -162.96385, -28.32031, 57.0, 10.0, 22.0, 0
85863, -0.4041748, 0.048950195, 0.9300537, -57.189938, -163.75731, -28.869627, 57.0, 10.0, 22.0, 0
85886, -0.55773926, 0.11022949, 0.9387207, -43.701168, -159.91211, -25.451658, 57.0, 10.0, 22.0, 0
85907, -0.63623047, 0.025390625, 0.954834, -17.51709, -155.94482, -20.996092, 53.0, 14.0, 16.0, 0
85935, -0.6418457, 0.09265137, 0.8708496, -20.324705, -153.8086, -18.432617, 53.0, 14.0, 16.0, 0
85957, -0.71240234, 0.15148926, 0.8289795, -32.53174, -152.70996, -20.446775, 53.0, 14.0, 16.0, 0
85979, -0.76708984, 0.16088867, 0.84594727, -21.362303, -148.86475, -21.789549, 53.0, 14.0, 16.0, 0
86001, -0.8006592, 0.12426758, 0.89331055, -2.6855466, -134.39941, -16.540527, 53.0, 11.0, 14.0, 0
86026, -0.87768555, 0.17053223, 0.7850342, 5.4321284, -121.64306, -13.793944, 53.0, 11.0, 14.0, 0
86048, -0.848999, 0.20239258, 0.7342529, 2.6245115, -114.56298, -14.892577, 53.0, 11.0, 14.0, 0
86066, -0.82702637, 0.1932373, 0.7591553, -9.338379, -109.7412, -15.624999, 53.0, 11.0, 14.0, 0
86089, -0.9094238, 0.1439209, 0.84228516, -12.512206, -97.77831, -15.502929, 53.0, 11.0, 14.0, 0
86106, -0.9128418, 0.14318848, 0.85839844, 5.615234, -84.655754, -14.770507, 58.0, 12.0, 8.0, 0
86135, -0.79833984, 0.17773438, 0.6779785, 17.700195, -78.186035, -7.7514644, 58.0, 12.0, 8.0, 0
86156, -0.8050537, 0.21313477, 0.6414795, 9.82666, -76.78223, -7.995605, 58.0, 12.0, 8.0, 0
86178, -0.8071289, 0.20690918, 0.6569824, 2.9296873, -69.70215, -14.648437, 58.0, 12.0, 8.0, 0
86199, -0.81359863, 0.14538574, 0.6467285, 4.5166016, -65.30762, -14.892577, 58.0, 12.0, 8.0, 0
86222, -0.81799316, 0.14123535, 0.5588379, 2.5634763, -64.39209, -14.770507, 54.0, 11.0, 14.0, 0
86244, -0.79907227, 0.23925781, 0.4552002, -6.1645503, -68.0542, -18.493652, 54.0, 11.0, 14.0, 0
86261, -0.8255615, 0.24951172, 0.4613037, -8.239746, -69.70215, -22.03369, 54.0, 11.0, 14.0, 0
86284, -0.904541, 0.17138672, 0.5053711, -4.699707, -68.96973, -22.827147, 54.0, 11.0, 14.0, 0
86302, -0.9324951, 0.13757324, 0.46362305, 8.666992, -63.84277, -20.38574, 55.0, 6.0, 7.0, 0
86327, -0.9346924, 0.20629883, 0.38586426, 13.488769, -61.096188, -20.690916, 55.0, 6.0, 7.0, 0
86345, -0.9268799, 0.24414062, 0.3630371, 13.305663, -58.837887, -20.874022, 55.0, 6.0, 7.0, 0
86363, -0.93566895, 0.20422363, 0.37280273, 14.709472, -56.64062, -16.235352, 55.0, 6.0, 7.0, 0
86384, -0.94763184, 0.1472168, 0.35839844, 14.770507, -54.992672, -13.488769, 55.0, 6.0, 7.0, 0
86402, -0.9310303, 0.171875, 0.319458, 4.211426, -51.574703, -11.657714, 56.0, 9.0, 4.0, 0
86432, -0.9157715, 0.22717285, 0.2894287, -0.8544921, -52.73437, -13.244628, 56.0, 9.0, 4.0, 0
86453, -0.92285156, 0.21313477, 0.30908203, 4.3945312, -54.992672, -11.352538, 56.0, 9.0, 4.0, 0
86471, -0.9281006, 0.19335938, 0.3178711, 4.3945312, -55.114742, -10.31494, 56.0, 9.0, 4.0, 0
86491, -0.9395752, 0.1854248, 0.3187256, -3.234863, -53.6499, -10.803222, 56.0, 9.0, 4.0, 0
86509, -0.944458, 0.21911621, 0.2635498, -8.972168, -53.52783, -12.634276, 59.0, 11.0, 5.0, 0
86535, -0.9592285, 0.2965088, 0.2475586, -3.601074, -51.940914, -11.657714, 59.0, 11.0, 5.0, 0
86556, -0.9782715, 0.27600098, 0.2680664, 7.3852534, -49.438473, -5.9204097, 59.0, 11.0, 5.0, 0
86576, -0.9902344, 0.21203613, 0.2163086, 5.187988, -42.358395, -2.9296873, 59.0, 11.0, 5.0, 0
86602, -0.9777832, 0.22949219, 0.15991211, -5.310058, -36.68213, -3.5400388, 59.0, 11.0, 4.0, 0
86625, -0.9127197, 0.3013916, 0.13366699, -7.0190425, -34.118652, -4.5166016, 59.0, 11.0, 4.0, 0
86651, -0.9090576, 0.29455566, 0.13208008, 0.793457, -35.03418, -4.211426, 59.0, 11.0, 4.0, 0
86673, -0.9517822, 0.24658203, 0.17272949, 5.249023, -32.104492, -2.5024414, 59.0, 11.0, 4.0, 0
86695, -0.96875, 0.20458984, 0.1619873, 4.638672, -28.44238, -2.1362305, 59.0, 11.0, 4.0, 0
86717, -0.9481201, 0.26098633, 0.14501953, 4.1503906, -23.254393, -2.9296873, 61.0, 7.0, 5.0, 0
86743, -0.9625244, 0.30200195, 0.1920166, 7.8124995, -17.76123, -2.9296873, 61.0, 7.0, 5.0, 0
86761, -0.97180176, 0.27331543, 0.19763184, 16.540527, -11.779784, -1.159668, 61.0, 7.0, 5.0, 0
86782, -0.97473145, 0.22717285, 0.2010498, 17.8833, -4.0283203, 0.9155273, 61.0, 7.0, 5.0, 0
86807, -0.97106934, 0.2932129, 0.20727539, 15.075683, 7.93457, 1.2817382, 61.0, 10.0, 2.0, 0
86830, -0.98779297, 0.2611084, 0.17382812, 13.732909, 10.559081, 0.5493164, 61.0, 10.0, 2.0, 0
86854, -0.986084, 0.25805664, 0.27563477, 6.9580073, 22.216795, 0.7324218, 61.0, 10.0, 2.0, 0
86881, -0.98010254, 0.2709961, 0.34521484, 17.822266, 32.226562, 5.249023, 61.0, 10.0, 2.0, 0
86902, -0.9661865, 0.23132324, 0.26293945, 24.353025, 38.879395, 9.155273, 57.0, 10.0, 6.0, 0
86921, -0.9807129, 0.2659912, 0.27001953, 7.3242183, 50.537106, 2.868652, 57.0, 10.0, 6.0, 0
86946, -1.0255127, 0.2697754, 0.3922119, 8.605957, 56.091305, 2.5024414, 57.0, 10.0, 6.0, 0
86968, -1.0350342, 0.21484375, 0.41015625, 41.870113, 75.805664, 14.953612, 57.0, 10.0, 6.0, 0
86988, -0.9941406, 0.21557617, 0.30493164, 52.185055, 82.58056, 21.545408, 57.0, 10.0, 6.0, 0
87006, -0.98620605, 0.23535156, 0.30895996, 36.376953, 89.72167, 19.348145, 57.0, 12.0, 11.0, 0
87029, -1.024292, 0.15942383, 0.46166992, 17.39502, 101.86767, 21.179197, 57.0, 12.0, 11.0, 0
87053, -1.0897217, 0.09680176, 0.583374, 25.085447, 127.68554, 28.19824, 57.0, 12.0, 11.0, 0
87075, -1.1046143, 0.18530273, 0.5019531, 38.94043, 141.6626, 24.597166, 57.0, 12.0, 11.0, 0
87093, -1.0214844, 0.21032715, 0.46704102, 34.91211, 144.53125, 22.094725, 57.0, 12.0, 11.0, 0
87116, -0.95288086, 0.16564941, 0.54138184, 27.282713, 142.39502, 23.986814, 58.0, 11.0, 12.0, 0
87134, -0.9572754, 0.031982422, 0.6989746, -3.9062498, 149.04785, 33.75244, 58.0, 11.0, 12.0, 0
87157, -0.979126, 0.080566406, 0.75427246, -16.601562, 161.3159, 31.311033, 58.0, 11.0, 12.0, 0
87179, -0.91552734, 0.16821289, 0.63623047, -22.52197, 163.26903, 25.451658, 58.0, 11.0, 12.0, 0
87197, -0.8321533, 0.19555664, 0.6213379, -31.494139, 158.08105, 24.04785, 58.0, 11.0, 12.0, 0
87219, -0.80358887, 0.20910645, 0.7644043, -16.357422, 157.04346, 25.390623, 59.0, 7.0, 17.0, 0
87238, -0.80126953, 0.115478516, 0.8123779, -7.690429, 161.37694, 29.84619, 59.0, 7.0, 17.0, 0
87261, -0.7578125, 0.119506836, 0.7963867, -25.878904, 163.33006, 26.977537, 59.0, 7.0, 17.0, 0
87279, -0.69873047, 0.1307373, 0.78466797, -49.377438, 161.98729, 19.77539, 59.0, 7.0, 17.0, 0
87301, -0.63842773, 0.18115234, 0.82141113, -41.625973, 161.37694, 14.343261, 55.0, 10.0, 19.0, 0
87325, -0.6218262, 0.16308594, 0.92126465, 1.0375977, 167.96873, 16.174316, 55.0, 10.0, 19.0, 0
87351, -0.58740234, 0.1439209, 0.89172363, -0.97656244, 167.60252, 15.930175, 55.0, 10.0, 19.0, 0
87370, -0.4786377, 0.15722656, 0.8428955, -18.432617, 162.41454, 13.610839, 55.0, 10.0, 19.0, 0
87387, -0.40270996, 0.16308594, 0.8984375, -26.611326, 162.59764, 12.329101, 55.0, 10.0, 19.0, 0
87410, -0.37731934, 0.15356445, 0.9691162, -20.935057, 165.89354, 11.352538, 58.0, 7.0, 24.0, 0
87430, -0.34106445, 0.1899414, 0.9316406, -9.155273, 165.95457, 9.82666, 58.0, 7.0, 24.0, 0
87451, -0.26245117, 0.1973877, 0.8775635, -3.8452146, 157.89795, 8.056641, 58.0, 7.0, 24.0, 0
87476, -0.17175293, 0.16821289, 0.89123535, -11.230468, 155.15137, 6.347656, 58.0, 7.0, 24.0, 0
87503, -0.14001465, 0.1394043, 0.9628906, -14.648437, 156.73828, 7.263183, 55.0, 6.0, 27.0, 0
87525, -0.057617188, 0.23950195, 0.8691406, 9.277344, 153.38135, 1.9531249, 55.0, 6.0, 27.0, 0
87544, 0.005004883, 0.26660156, 0.79589844, 22.52197, 147.94922, 1.0986328, 55.0, 6.0, 27.0, 0
87563, 0.0871582, 0.18713379, 0.7952881, 13.671874, 140.01465, 11.840819, 55.0, 6.0, 27.0, 0
87586, 0.111572266, 0.079589844, 0.9016113, -8.239746, 138.85498, 15.075683, 55.0, 6.0, 27.0, 0
87607, 0.19042969, 0.22143555, 0.8651123, -7.8735347, 138.48877, 11.535644, 51.0, 5.0, 30.0, 0
87626, 0.24890137, 0.25683594, 0.7680664, 22.583006, 131.40869, 6.1645503, 51.0, 5.0, 30.0, 0
87649, 0.29431152, 0.19763184, 0.71569824, 30.395506, 121.09374, 13.549804, 51.0, 5.0, 30.0, 0
87667, 0.3149414, 0.10241699, 0.79833984, 7.8124995, 118.652336, 15.075683, 51.0, 5.0, 30.0, 0
87685, 0.35791016, 0.13452148, 0.85095215, -4.3945312, 119.56786, 11.596679, 51.0, 5.0, 30.0, 0
87705, 0.39294434, 0.20678711, 0.82714844, -1.7089843, 119.87304, 2.7465818, 50.0, 0.0, 32.0, 0
87724, 0.47058105, 0.22705078, 0.67333984, 36.621094, 109.31396, 5.615234, 50.0, 0.0, 32.0, 0
87750, 0.5001221, 0.12548828, 0.6906738, 26.794432, 103.39355, 12.20703, 50.0, 0.0, 32.0, 0
87772, 0.5266113, 0.10583496, 0.7215576, 2.1972656, 101.19628, 10.009766, 50.0, 0.0, 32.0, 0
87790, 0.57250977, 0.17553711, 0.70043945, -4.5166016, 99.30419, 4.760742, 50.0, 0.0, 32.0, 0
87819, 0.60046387, 0.21972656, 0.6464844, 17.27295, 94.05517, 4.0893555, 51.0, -3.0, 34.0, 0
87842, 0.6241455, 0.22058105, 0.60266113, 23.498533, 86.547844, 3.1127927, 51.0, -3.0, 34.0, 0
87866, 0.6561279, 0.12023926, 0.64038086, 14.953612, 82.33642, 3.0517576, 51.0, -3.0, 34.0, 0
87884, 0.6693115, 0.13464355, 0.6401367, 1.2817382, 81.237785, -3.6621091, 51.0, -3.0, 34.0, 0
87902, 0.7109375, 0.20617676, 0.60339355, 8.056641, 79.65088, -5.1269526, 51.0, -6.0, 32.0, 0
87930, 0.73291016, 0.16992188, 0.5463867, 19.89746, 72.87598, -4.699707, 51.0, -6.0, 32.0, 0
87951, 0.74694824, 0.14343262, 0.56225586, 12.756347, 69.2749, -5.187988, 51.0, -6.0, 32.0, 0
87969, 0.77160645, 0.1315918, 0.546875, 6.896972, 67.26074, -5.737304, 51.0, -6.0, 32.0, 0
87990, 0.7956543, 0.16687012, 0.5062256, 5.737304, 63.171383, -7.8124995, 51.0, -6.0, 32.0, 0
88007, 0.8006592, 0.1586914, 0.48937988, 12.329101, 59.509274, -8.605957, 50.0, -11.0, 36.0, 0
88036, 0.82543945, 0.09790039, 0.48742676, 7.93457, 53.833004, -8.239746, 50.0, -11.0, 36.0, 0
88059, 0.8399658, 0.10827637, 0.4708252, 1.4038085, 50.354, -8.056641, 50.0, -11.0, 36.0, 0
88081, 0.8469238, 0.13049316, 0.4428711, 5.249023, 46.32568, -8.361816, 50.0, -11.0, 36.0, 0
88103, 0.84887695, 0.111694336, 0.44360352, 9.460449, 42.17529, -7.141113, 50.0, -11.0, 36.0, 0
88125, 0.8580322, 0.07873535, 0.41552734, 10.620116, 37.719727, -5.676269, 52.0, -14.0, 33.0, 0
88144, 0.8638916, 0.06274414, 0.42199707, 5.8593745, 34.91211, -4.699707, 52.0, -14.0, 33.0, 0
88166, 0.8651123, 0.08459473, 0.40197754, -1.2817382, 32.77588, -4.0893555, 52.0, -14.0, 33.0, 0
88184, 0.8670654, 0.08996582, 0.38537598, -3.2958982, 26.245115, -3.0517576, 52.0, -14.0, 33.0, 0
88224, 0.88256836, 0.09399414, 0.4144287, 8.605957, 23.498533, -2.0751953, 52.0, -13.0, 35.0, 0
88247, 0.8718262, 0.09020996, 0.47192383, 12.817382, 25.329588, -2.7465818, 52.0, -13.0, 35.0, 0
88269, 0.88586426, 0.095581055, 0.4716797, 5.004883, 25.634764, -1.8310546, 52.0, -13.0, 35.0, 0
88286, 0.8942871, 0.12414551, 0.4506836, 1.7700194, 26.000975, -1.7700194, 52.0, -13.0, 35.0, 0
88307, 0.9213867, 0.12756348, 0.4000244, 5.004883, 24.719236, -0.61035156, 50.0, -14.0, 32.0, 0
88331, 0.9309082, 0.099365234, 0.37927246, 3.967285, 25.878904, -2.6245115, 50.0, -14.0, 32.0, 0
88349, 0.93481445, 0.10827637, 0.32922363, -0.48828122, 21.789549, -2.319336, 50.0, -14.0, 32.0, 0
88368, 0.93640137, 0.10522461, 0.29003906, 1.2207031, 17.8833, -2.2583008, 50.0, -14.0, 32.0, 0
88389, 0.9350586, 0.10119629, 0.20910645, 8.361816, 11.718749, -0.793457, 50.0, -14.0, 32.0, 0
88407, 0.9361572, 0.059814453, 0.20507812, 10.498046, 1.3427733, 3.0517576, 53.0, -16.0, 30.0, 0
88431, 0.9172363, 0.053588867, 0.2623291, 4.760742, -8.239746, 6.04248, 53.0, -16.0, 30.0, 0
88449, 0.92297363, 0.057006836, 0.2532959, 2.2583008, -16.967773, 5.187988, 53.0, -16.0, 30.0, 0
88472, 0.95544434, 0.056884766, 0.23376465, 8.483887, -28.32031, 3.0517576, 53.0, -16.0, 30.0, 0
88492, 0.8996582, 0.06665039, 0.22314453, 5.737304, -47.424313, 1.8920897, 53.0, -16.0, 30.0, 0
88513, 0.8778076, 0.06652832, 0.19006348, -7.8735347, -60.119625, 2.6245115, 50.0, -16.0, 29.0, 0
88541, 0.8529053, 0.06286621, 0.23095703, -19.16504, -71.5332, 2.319336, 50.0, -16.0, 29.0, 0
88563, 0.8249512, 0.14624023, 0.31640625, -4.272461, -78.61328, 1.9531249, 50.0, -16.0, 29.0, 0
88588, 0.80407715, 0.16394043, 0.39111328, 2.2583008, -82.51952, 2.4414062, 50.0, -16.0, 29.0, 0
88605, 0.7871094, 0.1697998, 0.41540527, 2.5634763, -90.14892, 0.61035156, 52.0, -11.0, 36.0, 0
88645, 0.7540283, 0.11694336, 0.43310547, -26.000975, -104.675285, -5.737304, 52.0, -11.0, 36.0, 0
88627, 0.77111816, 0.15222168, 0.4020996, -3.967285, -94.482414, -1.3427733, 52.0, -11.0, 36.0, 0
88663, 0.7318115, 0.13269043, 0.49243164, -22.827147, -106.445305, -7.8124995, 52.0, -11.0, 36.0, 0
88685, 0.7182617, 0.22375488, 0.49414062, 8.361816, -111.32812, -11.413573, 52.0, -11.0, 36.0, 0
88703, 0.68566895, 0.20727539, 0.41064453, 30.2124, -125.1831, -10.31494, 52.0, -11.0, 36.0, 0
88723, 0.6105957, -0.01965332, 0.5020752, -2.9296873, -135.00977, -2.9907224, 49.0, -4.0, 33.0, 0
88749, 0.54382324, 0.09423828, 0.7232666, -29.174803, -133.36182, -6.469726, 49.0, -4.0, 33.0, 0
88790, 0.46862793, 0.13793945, 0.54541016, 34.606934, -158.81348, -10.375976, 49.0, -4.0, 33.0, 0
88771, 0.5366211, 0.29418945, 0.623291, 18.737793, -142.39502, -14.526366, 49.0, -4.0, 33.0, 0
88812, 0.39453125, -0.14379883, 0.75561523, 7.4462886, -163.33006, 1.9531249, 52.0, 2.0, 30.0, 0
88840, 0.35229492, 0.1508789, 0.89172363, 4.8828125, -157.10449, -8.117676, 52.0, 2.0, 30.0, 0
88859, 0.32226562, 0.26220703, 0.704834, 55.969234, -165.58836, -13.488769, 52.0, 2.0, 30.0, 0
88879, 0.26464844, 0.15063477, 0.5411377, 69.33594, -180.48094, -9.521484, 52.0, 2.0, 30.0, 0
88898, 0.1628418, -0.21447754, 0.7525635, -3.4790037, -183.59373, -3.0517576, 52.0, 2.0, 30.0, 0
88920, 0.032104492, -0.3026123, 1.1003418, -96.740715, -176.9409, -6.408691, 52.0, 8.0, 30.0, 0
88944, -0.0059814453, 0.18737793, 1.1204834, -45.71533, -174.74364, -25.329588, 52.0, 8.0, 30.0, 0
88962, -0.019165039, 0.52001953, 0.77404785, 93.44482, -172.2412, -22.827147, 52.0, 8.0, 30.0, 0
88981, -0.11193848, 0.095825195, 0.72229004, 96.496574, -177.24608, -9.460449, 52.0, 8.0, 30.0, 0
89004, -0.13879395, -0.39001465, 1.1164551, -28.625486, -173.76707, -10.253905, 52.0, 11.0, 24.0, 0
89023, -0.17663574, -0.1348877, 1.1520996, -102.60009, -170.59325, -20.996092, 52.0, 11.0, 24.0, 0
89046, -0.2644043, 0.20117188, 1.0438232, -19.28711, -167.11424, -24.230955, 52.0, 11.0, 24.0, 0
89063, -0.35290527, 0.33203125, 0.98742676, 97.90038, -151.36719, -18.859863, 52.0, 11.0, 24.0, 0
89081, -0.40283203, 0.064819336, 1.0238037, 80.5664, -147.09473, -20.996092, 52.0, 11.0, 24.0, 0
89104, -0.41015625, -0.18762207, 1.1466064, -34.851074, -145.44678, -22.766111, 55.0, 9.0, 19.0, 0
89127, -0.42565918, 0.02746582, 1.0058594, -83.8623, -135.62012, -25.573729, 55.0, 9.0, 19.0, 0
89149, -0.48425293, 0.20275879, 0.9547119, 1.0986328, -132.32422, -27.343748, 55.0, 9.0, 19.0, 0
89165, -0.52075195, 0.23950195, 0.9613037, 43.518063, -129.94385, -22.3999, 55.0, 9.0, 19.0, 0
89188, -0.57629395, 0.07751465, 0.8956299, 27.343748, -130.31006, -19.65332, 55.0, 9.0, 19.0, 0
89205, -0.5871582, 0.03186035, 0.87939453, -47.912594, -128.2959, -22.27783, 57.0, 12.0, 15.0, 0
89232, -0.70129395, 0.028808594, 0.9371338, -15.380858, -116.76025, -25.024412, 57.0, 12.0, 15.0, 0
89253, -0.76708984, 0.1821289, 0.9456787, 55.114742, -103.08837, -28.137205, 57.0, 12.0, 15.0, 0
89275, -0.7532959, 0.16296387, 0.93188477, 43.82324, -99.73144, -25.81787, 57.0, 12.0, 15.0, 0
89301, -0.69873047, 0.03503418, 0.8631592, -34.301758, -89.172356, -16.357422, 53.0, 13.0, 14.0, 0
89324, -0.6739502, 0.04711914, 0.8597412, -33.75244, -75.43945, -15.930175, 53.0, 13.0, 14.0, 0
89366, -0.69189453, 0.22155762, 0.6641846, 2.1972656, -72.93701, -21.545408, 53.0, 13.0, 14.0, 0
89347, -0.6876221, 0.19555664, 0.70166016, -2.380371, -66.833496, -20.019531, 53.0, 13.0, 14.0, 0
89389, -0.79748535, 0.107788086, 0.6656494, -12.573241, -74.157715, -16.174316, 53.0, 13.0, 14.0, 0
89410, -0.80407715, 0.056884766, 0.65405273, -20.874022, -73.66943, -17.456055, 54.0, 15.0, 14.0, 0
89434, -0.7907715, 0.13549805, 0.59729004, -7.93457, -76.23291, -21.057127, 54.0, 15.0, 14.0, 0
89456, -0.8248291, 0.16259766, 0.55688477, 11.474608, -79.10156, -21.545408, 54.0, 15.0, 14.0, 0
89473, -0.86450195, 0.12060547, 0.53222656, 18.432617, -77.20947, -16.967773, 54.0, 15.0, 14.0, 0
89492, -0.8540039, 0.109375, 0.52563477, 2.0751953, -72.69287, -13.122558, 54.0, 15.0, 14.0, 0
89515, -0.8494873, 0.09338379, 0.5041504, -27.404783, -71.59424, -9.765625, 57.0, 8.0, 5.0, 0
89538, -0.8691406, 0.16186523, 0.48364258, -46.508785, -68.0542, -8.7890625, 57.0, 8.0, 5.0, 0
89561, -0.883667, 0.20300293, 0.45336914, -39.123535, -66.89453, -9.033203, 57.0, 8.0, 5.0, 0
89579, -0.8984375, 0.22241211, 0.44812012, -32.348633, -68.78662, -6.408691, 57.0, 8.0, 5.0, 0
89597, -0.9168701, 0.2454834, 0.46740723, -22.766111, -69.0918, -6.04248, 57.0, 8.0, 5.0, 0
89625, -0.9284668, 0.25390625, 0.4814453, -14.648437, -66.52832, -6.1645503, 56.0, 9.0, 5.0, 0
89647, -0.93603516, 0.2647705, 0.47839355, -11.413573, -58.28857, -4.760742, 56.0, 9.0, 5.0, 0
89669, -0.9423828, 0.25341797, 0.44128418, -9.58252, -51.818844, -4.333496, 56.0, 9.0, 5.0, 0
89696, -0.9069824, 0.2515869, 0.40234375, -7.629394, -47.485348, -3.8452146, 56.0, 9.0, 5.0, 0
89716, -0.8985596, 0.24829102, 0.4136963, -10.803222, -44.55566, -3.9062498, 57.0, 10.0, 6.0, 0
89734, -0.9169922, 0.26306152, 0.40722656, -9.094238, -42.602535, -4.638672, 57.0, 10.0, 6.0, 0
89775, -0.9494629, 0.28649902, 0.30932617, 20.568846, -25.390623, -5.676269, 57.0, 10.0, 6.0, 0
89799, -0.9090576, 0.17785645, 0.3421631, 20.568846, -34.118652, -4.5166016, 57.0, 10.0, 6.0, 0
89821, -0.9283447, 0.24926758, 0.33190918, 24.597166, -45.532223, -4.8828125, 59.0, 7.0, 9.0, 0
89867, -0.92700195, 0.15466309, 0.2927246, 11.657714, -37.719727, 3.7841794, 59.0, 7.0, 9.0, 0
89893, -0.93408203, 0.24145508, 0.24243164, 3.967285, -33.63037, -0.30517578, 59.0, 7.0, 9.0, 0
89910, -0.9505615, 0.19628906, 0.25476074, 6.347656, -31.677244, -2.0751953, 59.0, 10.0, 5.0, 0
89934, -0.9638672, 0.21142578, 0.21789551, 13.549804, -23.071287, 0.30517578, 59.0, 10.0, 5.0, 0
89960, -0.93310547, 0.22375488, 0.1508789, 12.451171, -22.094725, 1.0986328, 59.0, 10.0, 5.0, 0
89978, -0.93725586, 0.25305176, 0.19152832, -0.18310545, -18.737793, -0.122070305, 59.0, 10.0, 5.0, 0
90001, -0.9610596, 0.26831055, 0.23901367, 1.8920897, -17.150879, -0.42724606, 59.0, 10.0, 5.0, 0
90024, -0.9671631, 0.21020508, 0.21081543, 20.080564, -11.657714, 5.1269526, 58.0, 11.0, 5.0, 0
90046, -0.9472656, 0.23852539, 0.20947266, 6.347656, -5.615234, 4.9438477, 58.0, 11.0, 5.0, 0
90063, -0.95947266, 0.26513672, 0.2265625, -7.995605, -3.9062498, 2.5634763, 58.0, 11.0, 5.0, 0
90086, -0.98291016, 0.22460938, 0.22875977, -2.0141602, -0.97656244, 1.8920897, 58.0, 11.0, 5.0, 0
90108, -0.94958496, 0.22216797, 0.22290039, 0.42724606, 5.187988, 1.4038085, 56.0, 10.0, 10.0, 0
90132, -0.9499512, 0.27148438, 0.24414062, 0.67138666, 11.291503, -1.3427733, 56.0, 10.0, 10.0, 0
90154, -0.9626465, 0.22155762, 0.24853516, 9.521484, 16.662598, -1.2817382, 56.0, 10.0, 10.0, 0
90181, -0.9616699, 0.2097168, 0.26062012, 4.9438477, 24.963377, -0.3662109, 56.0, 10.0, 10.0, 0
90207, -0.9769287, 0.23144531, 0.32177734, 5.249023, 33.813477, -1.2817382, 55.0, 11.0, 5.0, 0
90229, -0.977417, 0.20654297, 0.34960938, 18.310547, 48.46191, 2.6245115, 55.0, 11.0, 5.0, 0
90250, -0.9539795, 0.21081543, 0.31311035, 22.583006, 52.73437, 3.0517576, 55.0, 11.0, 5.0, 0
90272, -0.9449463, 0.24951172, 0.352417, 15.136718, 57.006832, 4.0893555, 55.0, 11.0, 5.0, 0
90290, -0.97753906, 0.23657227, 0.49157715, 10.31494, 67.13867, 7.995605, 55.0, 11.0, 5.0, 0
90313, -0.9968262, 0.20568848, 0.54467773, 30.578611, 78.73535, 14.09912, 57.0, 13.0, 9.0, 0
90333, -0.9967041, 0.16015625, 0.48083496, 50.47607, 89.23339, 15.99121, 57.0, 13.0, 9.0, 0
90355, -0.97875977, 0.19006348, 0.4423828, 44.67773, 95.88622, 13.183593, 57.0, 13.0, 9.0, 0
90373, -0.9716797, 0.22229004, 0.5251465, 32.89795, 101.13525, 11.352538, 57.0, 13.0, 9.0, 0
90401, -0.98913574, 0.09082031, 0.649292, 27.343748, 112.67089, 19.714355, 59.0, 9.0, 16.0, 0
90425, -0.9604492, 0.103027344, 0.61621094, 11.169433, 122.98583, 20.751951, 59.0, 9.0, 16.0, 0
90453, -0.920166, 0.11242676, 0.625, -2.9907224, 124.99999, 21.972654, 59.0, 9.0, 16.0, 0
90474, -0.8815918, 0.11706543, 0.64404297, -16.174316, 126.28173, 22.3999, 59.0, 9.0, 16.0, 0
90494, -0.87194824, 0.08618164, 0.7348633, -19.348145, 130.92041, 22.949217, 59.0, 9.0, 16.0, 0
90517, -0.89660645, 0.07946777, 0.8294678, -15.8081045, 142.02881, 23.376463, 58.0, 9.0, 21.0, 0
90540, -0.8138428, 0.17077637, 0.7874756, -5.981445, 149.10889, 16.418457, 58.0, 9.0, 21.0, 0
90563, -0.7470703, 0.11816406, 0.81066895, 1.6479491, 151.9165, 19.89746, 58.0, 9.0, 21.0, 0
90581, -0.7385254, 0.068359375, 0.8878174, -5.1269526, 158.63037, 21.91162, 58.0, 9.0, 21.0, 0
90600, -0.71777344, 0.10949707, 0.9086914, -14.465331, 163.63524, 17.089844, 58.0, 9.0, 21.0, 0
90627, -0.69384766, 0.14916992, 0.8901367, -8.544922, 166.99217, 14.465331, 55.0, 6.0, 17.0, 0
90650, -0.6105957, 0.14746094, 0.86987305, -0.5493164, 167.66356, 17.39502, 55.0, 6.0, 17.0, 0
90677, -0.5463867, 0.11193848, 0.88549805, -3.4790037, 166.01561, 15.686034, 55.0, 6.0, 17.0, 0
90698, -0.5012207, 0.08947754, 0.93652344, -9.765625, 166.8701, 12.512206, 55.0, 6.0, 17.0, 0
90716, -0.45666504, 0.12207031, 0.9560547, -11.474608, 168.39598, 8.972168, 57.0, 4.0, 22.0, 0
90741, -0.35229492, 0.15332031, 0.91918945, -2.0141602, 165.95457, 7.93457, 57.0, 4.0, 22.0, 0
90759, -0.30969238, 0.11743164, 0.9329834, 9.338379, 164.6118, 11.352538, 57.0, 4.0, 22.0, 0
90808, -0.15698242, 0.09020996, 0.91516113, -7.8124995, 158.14209, 13.732909, 53.0, 7.0, 28.0, 0
90831, -0.06225586, 0.111694336, 0.9136963, -7.5073237, 157.59277, 12.451171, 53.0, 7.0, 28.0, 0
90859, 0.025878906, 0.14660645, 0.8562012, 4.5776367, 151.67236, 11.413573, 53.0, 7.0, 28.0, 0
90882, 0.1126709, 0.071899414, 0.84936523, 10.253905, 142.51709, 14.892577, 53.0, 7.0, 28.0, 0
90903, 0.14172363, 0.05480957, 0.89123535, 5.0659175, 142.15088, 15.8081045, 53.0, 7.0, 28.0, 0
90920, 0.1907959, 0.122558594, 0.84887695, -1.586914, 141.47949, 12.329101, 52.0, 1.0, 27.0, 0
90944, 0.25317383, 0.17614746, 0.7772217, 11.291503, 134.52148, 11.413573, 52.0, 1.0, 27.0, 0
90962, 0.28479004, 0.12158203, 0.76660156, 14.282226, 128.479, 15.0146475, 52.0, 1.0, 27.0, 0
90984, 0.28405762, 0.07080078, 0.8253174, -2.6855466, 126.4038, 15.99121, 52.0, 1.0, 27.0, 0
91007, 0.3269043, 0.1439209, 0.814209, -15.075683, 123.59618, 13.610839, 50.0, 0.0, 31.0, 0
91026, 0.37512207, 0.19787598, 0.7546387, -9.765625, 118.34716, 11.535644, 50.0, 0.0, 31.0, 0
91049, 0.40490723, 0.17663574, 0.70544434, 1.6479491, 114.013664, 9.277344, 50.0, 0.0, 31.0, 0
91070, 0.5019531, 0.1583252, 0.69799805, 5.737304, 106.14013, 7.7514644, 50.0, 0.0, 31.0, 0
91093, 0.53759766, 0.16357422, 0.6972656, 13.549804, 102.661125, 5.1269526, 50.0, 0.0, 31.0, 0
91114, 0.5773926, 0.15234375, 0.68688965, 21.118162, 98.876945, 3.7841794, 53.0, -6.0, 35.0, 0
91137, 0.5761719, 0.18737793, 0.67858887, 29.663084, 98.08349, 0.97656244, 53.0, -6.0, 35.0, 0
91155, 0.6378174, 0.12805176, 0.6356201, 36.92627, 92.834465, 0.48828122, 53.0, -6.0, 35.0, 0
91181, 0.67285156, 0.07946777, 0.6154785, 21.057127, 86.97509, 4.1503906, 53.0, -6.0, 35.0, 0
91222, 0.6954346, 0.1430664, 0.6086426, 1.5258788, 84.35058, 1.5258788, 52.0, -7.0, 33.0, 0
91202, 0.69555664, 0.10107422, 0.5966797, 13.671874, 85.99853, 3.3569334, 53.0, -6.0, 35.0, 0
91245, 0.7423096, 0.16711426, 0.5263672, 9.033203, 78.552246, 1.8310546, 52.0, -7.0, 33.0, 0
91268, 0.7709961, 0.099243164, 0.4991455, 7.7514644, 72.387695, 3.173828, 52.0, -7.0, 33.0, 0
91286, 0.78234863, 0.09338379, 0.50634766, -1.7089843, 70.19043, 1.7089843, 52.0, -7.0, 33.0, 0
91305, 0.7928467, 0.15551758, 0.4814453, -2.5634763, 66.52832, -1.7089843, 52.0, -12.0, 28.0, 0
91328, 0.8156738, 0.123168945, 0.44421387, 1.586914, 57.739254, -1.0375977, 52.0, -12.0, 28.0, 0
91352, 0.8286133, 0.119262695, 0.42578125, 2.5634763, 55.78613, -2.1972656, 52.0, -12.0, 28.0, 0
91376, 0.84191895, 0.10620117, 0.42749023, 0.122070305, 48.33984, -2.0751953, 52.0, -12.0, 28.0, 0
91397, 0.85705566, 0.11779785, 0.42260742, 2.319336, 45.16601, -3.3569334, 52.0, -12.0, 28.0, 0
91418, 0.8664551, 0.13256836, 0.40649414, 7.3852534, 41.076656, -5.4321284, 51.0, -17.0, 32.0, 0
91441, 0.8782959, 0.10131836, 0.3935547, 13.122558, 35.52246, -5.4321284, 51.0, -17.0, 32.0, 0
91462, 0.890625, 0.084106445, 0.3939209, 14.404296, 31.921385, -5.7983394, 51.0, -17.0, 32.0, 0
91484, 0.8901367, 0.07531738, 0.3897705, 7.93457, 25.329588, -3.7231443, 51.0, -17.0, 32.0, 0
91506, 0.90075684, 0.07727051, 0.3843994, 5.187988, 22.3999, -2.1972656, 52.0, -15.0, 33.0, 0
91529, 0.895874, 0.06921387, 0.39770508, 2.7465818, 22.460936, -2.868652, 52.0, -15.0, 33.0, 0
91548, 0.90441895, 0.068481445, 0.3795166, 5.5541987, 21.118162, -2.0751953, 52.0, -15.0, 33.0, 0
91570, 0.9041748, 0.072753906, 0.37231445, 2.868652, 17.578125, -0.8544921, 52.0, -15.0, 33.0, 0
91588, 0.9042969, 0.07336426, 0.40368652, -0.793457, 17.578125, -0.9155273, 52.0, -15.0, 33.0, 0
91615, 0.90771484, 0.10583496, 0.3791504, 0.061035153, 14.953612, 0.30517578, 50.0, -15.0, 29.0, 0
91642, 0.91967773, 0.07116699, 0.4066162, 4.211426, 15.258788, -0.48828122, 50.0, -15.0, 29.0, 0
91662, 0.9213867, 0.10424805, 0.4099121, 5.615234, 17.578125, -2.5024414, 50.0, -15.0, 29.0, 0
91679, 0.9265137, 0.09814453, 0.40283203, 2.807617, 19.836426, -4.1503906, 50.0, -15.0, 29.0, 0
91704, 0.9259033, 0.087768555, 0.40686035, -4.272461, 21.240232, -4.0893555, 53.0, -18.0, 33.0, 0
91727, 0.93395996, 0.10461426, 0.38256836, -1.8310546, 22.949217, -2.9907224, 53.0, -18.0, 33.0, 0
91748, 0.9503174, 0.10107422, 0.34179688, 1.7089843, 24.902342, -4.699707, 53.0, -18.0, 33.0, 0
91769, 0.9499512, 0.09057617, 0.29211426, 2.5634763, 23.071287, -5.249023, 53.0, -18.0, 33.0, 0
91793, 0.9539795, 0.07287598, 0.26696777, -0.3662109, 17.39502, -5.310058, 53.0, -18.0, 33.0, 0
91819, 0.95336914, 0.06738281, 0.2121582, -1.2817382, 12.20703, -4.4555664, 52.0, -17.0, 30.0, 0
91843, 0.9453125, 0.026611328, 0.18139648, -3.1127927, -0.48828122, 0.122070305, 52.0, -17.0, 30.0, 0
91865, 0.94262695, 0.04309082, 0.13537598, -0.67138666, -13.244628, 5.0659175, 52.0, -17.0, 30.0, 0
91891, 0.91552734, -0.01171875, 0.19812012, -11.96289, -31.005857, 8.605957, 52.0, -17.0, 30.0, 0
91915, 0.89404297, 0.02355957, 0.25805664, -17.089844, -38.635254, 8.911133, 50.0, -18.0, 31.0, 0
91938, 0.9108887, 0.103759766, 0.2109375, -0.67138666, -48.70605, 9.765625, 50.0, -18.0, 31.0, 0
91967, 0.8869629, 0.075683594, 0.24304199, 18.432617, -62.19482, 7.0190425, 50.0, -18.0, 31.0, 0
91989, 0.84155273, 0.049194336, 0.33764648, 8.728027, -66.101074, 7.0190425, 50.0, -18.0, 31.0, 0
92011, 0.86413574, 0.11376953, 0.2755127, 2.868652, -79.833984, 9.338379, 49.0, -11.0, 35.0, 0
92035, 0.848999, 0.09375, 0.26367188, 1.5258788, -92.40722, 11.657714, 49.0, -11.0, 35.0, 0
92053, 0.8129883, 0.08532715, 0.30944824, -2.2583008, -100.402824, 12.512206, 49.0, -11.0, 35.0, 0
92074, 0.7713623, 0.11657715, 0.36938477, -6.896972, -109.86327, 12.329101, 49.0, -11.0, 35.0, 0
92096, 0.713501, 0.095703125, 0.48339844, -11.1083975, -113.70849, 13.366698, 49.0, -11.0, 35.0, 0
92119, 0.6602783, 0.11584473, 0.62353516, -16.540527, -109.43603, 12.756347, 54.0, -8.0, 31.0, 0
92145, 0.70214844, 0.28027344, 0.58862305, 2.1972656, -119.56786, 5.310058, 54.0, -8.0, 31.0, 0
92167, 0.6723633, 0.1665039, 0.560791, 14.404296, -127.31933, 7.263183, 54.0, -8.0, 31.0, 0
92185, 0.61328125, 0.08276367, 0.6879883, 5.1269526, -120.056145, 7.5073237, 54.0, -8.0, 31.0, 0
92208, 0.5596924, 0.12658691, 0.79797363, -1.8310546, -110.229485, 3.234863, 52.0, -3.0, 31.0, 0
92227, 0.59643555, 0.25427246, 0.68530273, 22.888182, -120.60546, -0.8544921, 52.0, -3.0, 31.0, 0
92254, 0.5611572, 0.19152832, 0.5666504, 30.395506, -130.00488, 1.8310546, 52.0, -3.0, 31.0, 0
92276, 0.50231934, -0.07885742, 0.6727295, -21.179197, -134.52148, 11.535644, 52.0, -3.0, 31.0, 0
92300, 0.38012695, -0.095214844, 0.90478516, -68.237305, -125.06103, 13.427733, 52.0, -3.0, 31.0, 0
92322, 0.43530273, 0.54016113, 0.7680664, 9.521484, -121.58202, -7.8735347, 51.0, 3.0, 33.0, 0
92343, 0.4078369, 0.23754883, 0.5131836, 96.13036, -153.19824, 1.586914, 51.0, 3.0, 33.0, 0
92366, 0.25268555, -0.32043457, 0.81689453, -16.113281, -150.5127, 20.38574, 51.0, 3.0, 33.0, 0
92389, 0.14282227, -0.16918945, 1.0258789, -106.38427, -137.87842, 5.737304, 51.0, 3.0, 33.0, 0
92410, 0.17419434, 0.41052246, 1.020874, -30.639647, -136.2915, -23.986814, 52.0, 7.0, 27.0, 0
92429, 0.1739502, 0.41906738, 0.7940674, 70.007324, -146.1792, -12.451171, 52.0, 7.0, 27.0, 0
92452, 0.091796875, -0.06225586, 0.7558594, 29.785154, -154.23584, 13.244628, 52.0, 7.0, 27.0, 0
92474, -0.083984375, -0.11071777, 1.1357422, -91.12548, -141.60156, -0.8544921, 52.0, 7.0, 27.0, 0
92495, -0.14086914, 0.4038086, 1.1723633, -61.279293, -139.16016, -13.671874, 52.0, 7.0, 27.0, 0
92513, -0.103271484, 0.42443848, 0.89208984, 99.91454, -140.99121, -8.728027, 54.0, 8.0, 26.0, 0
92536, -0.16455078, 0.025756836, 0.8319092, 54.26025, -145.08057, 7.141113, 54.0, 8.0, 26.0, 0
92554, -0.25427246, -0.19580078, 1.0871582, -46.264645, -136.96289, 5.1269526, 54.0, 8.0, 26.0, 0
92580, -0.35656738, 0.045410156, 1.1679688, -70.98389, -127.01415, -9.277344, 54.0, 8.0, 26.0, 0
92604, -0.36950684, 0.37475586, 1.0189209, 33.26416, -116.45507, -11.718749, 54.0, 8.0, 26.0, 0
92624, -0.3227539, 0.16955566, 0.7988281, 32.714844, -120.48339, 5.1269526, 56.0, 11.0, 21.0, 0
92650, -0.28674316, 0.029052734, 0.8590088, -27.9541, -125.42724, 2.807617, 56.0, 11.0, 21.0, 0
92674, -0.48815918, 0.026489258, 1.107666, -49.98779, -112.854, -4.0283203, 56.0, 11.0, 21.0, 0
92696, -0.5286865, 0.2758789, 0.9949951, -12.756347, -110.107414, -12.023925, 56.0, 11.0, 21.0, 0
92714, -0.47106934, 0.31713867, 0.8411865, 14.770507, -115.1123, -4.3945312, 55.0, 11.0, 13.0, 0
92742, -0.4946289, 0.16381836, 0.79345703, -1.4038085, -120.11718, 2.6855466, 55.0, 11.0, 13.0, 0
92759, -0.60424805, 0.111694336, 0.9366455, -11.291503, -115.2954, -7.8124995, 55.0, 11.0, 13.0, 0
92782, -0.66137695, 0.12805176, 1.0119629, 20.690916, -106.323235, -15.258788, 55.0, 11.0, 13.0, 0
92801, -0.6710205, 0.21252441, 0.9412842, 48.33984, -99.42626, -15.441894, 55.0, 11.0, 13.0, 0
92823, -0.64941406, 0.1538086, 0.6977539, 33.38623, -96.1914, -3.3569334, 57.0, 15.0, 10.0, 0
92846, -0.68981934, 0.064941406, 0.763916, 5.9204097, -91.308586, -4.638672, 57.0, 15.0, 10.0, 0
92867, -0.7044678, 0.08166504, 0.82592773, -2.807617, -85.51025, -13.000487, 57.0, 15.0, 10.0, 0
92893, -0.6958008, 0.14013672, 0.7034912, -8.544922, -86.547844, -10.864257, 57.0, 15.0, 10.0, 0
92934, -0.7746582, 0.17565918, 0.7056885, -17.63916, -87.036125, -7.629394, 56.0, 13.0, 11.0, 0
92914, -0.7180176, 0.17211914, 0.65966797, -13.8549795, -88.31786, -8.422852, 56.0, 13.0, 11.0, 0
92956, -0.81591797, 0.17700195, 0.70007324, -0.9155273, -82.09228, -11.169433, 56.0, 13.0, 11.0, 0
92979, -0.8161621, 0.18530273, 0.6291504, 7.568359, -79.52881, -12.451171, 56.0, 13.0, 11.0, 0
93004, -0.81103516, 0.2064209, 0.5522461, -2.0751953, -78.97949, -11.96289, 56.0, 13.0, 11.0, 0
93023, -0.8338623, 0.20336914, 0.5710449, -14.038085, -79.10156, -11.230468, 55.0, 11.0, 13.0, 0
93047, -0.87854004, 0.13903809, 0.60961914, -15.380858, -72.08252, -10.620116, 55.0, 11.0, 13.0, 0
93066, -0.89489746, 0.16882324, 0.59020996, -10.0708, -65.06348, -11.352538, 55.0, 11.0, 13.0, 0
93092, -0.8930664, 0.21496582, 0.52563477, -1.4648436, -62.499996, -10.620116, 55.0, 11.0, 13.0, 0
93136, -0.9251709, 0.1361084, 0.51538086, 3.4179685, -55.603024, -7.568359, 58.0, 13.0, 8.0, 0
93114, -0.9100342, 0.19006348, 0.5003662, -2.5634763, -59.020992, -9.82666, 58.0, 13.0, 8.0, 0
93154, -0.9136963, 0.0949707, 0.48535156, 11.9018545, -52.36816, -2.9907224, 58.0, 13.0, 8.0, 0
93181, -0.8734131, 0.1373291, 0.42871094, 5.8593745, -48.645016, -1.8310546, 58.0, 13.0, 8.0, 0
93203, -0.8457031, 0.22436523, 0.41992188, -3.234863, -43.15185, -5.1269526, 58.0, 13.0, 8.0, 0
93222, -0.8688965, 0.22705078, 0.45361328, 2.0751953, -42.480465, -5.310058, 57.0, 11.0, 10.0, 0
93250, -0.9074707, 0.21569824, 0.44836426, 6.7138667, -41.687008, -4.638672, 57.0, 11.0, 10.0, 0
93269, -0.9172363, 0.25805664, 0.3894043, 4.3945312, -36.499023, -5.676269, 57.0, 11.0, 10.0, 0
93296, -0.9055176, 0.29467773, 0.36572266, 1.586914, -34.79004, -6.896972, 57.0, 11.0, 10.0, 0
93317, -0.9112549, 0.2536621, 0.37219238, -4.9438477, -34.240723, -5.9204097, 58.0, 9.0, 7.0, 0
93368, -0.94592285, 0.23449707, 0.3017578, 3.8452146, -32.89795, -6.408691, 58.0, 9.0, 7.0, 0
93345, -0.939209, 0.23620605, 0.3453369, -6.9580073, -34.973145, -4.0893555, 58.0, 9.0, 7.0, 0
93389, -0.9194336, 0.2401123, 0.28979492, 8.117676, -30.639647, -7.202148, 58.0, 9.0, 7.0, 0
93424, -0.96032715, 0.1541748, 0.3100586, 13.549804, -28.930662, -5.4321284, 56.0, 10.0, 8.0, 0
93467, -0.8913574, 0.20471191, 0.25109863, 10.681151, -23.559568, 1.4038085, 56.0, 10.0, 8.0, 0
93447, -0.9395752, 0.15405273, 0.28845215, 16.174316, -24.963377, -1.9531249, 56.0, 10.0, 8.0, 0
93490, -0.9075928, 0.20837402, 0.25805664, 2.1972656, -22.03369, 0.9155273, 56.0, 10.0, 8.0, 0
93514, -0.9482422, 0.20263672, 0.27856445, 1.586914, -18.127441, -0.42724606, 60.0, 6.0, 8.0, 0
93538, -0.9713135, 0.22668457, 0.25073242, 1.4038085, -15.686034, -0.122070305, 60.0, 6.0, 8.0, 0
93577, -0.9349365, 0.23413086, 0.2199707, 5.1269526, -10.925292, 5.0659175, 60.0, 6.0, 8.0, 0
93559, -0.961792, 0.23535156, 0.22241211, 2.868652, -13.0615225, 2.7465818, 60.0, 6.0, 8.0, 0
93625, -0.951416, 0.21557617, 0.2906494, 4.0283203, -4.0283203, -0.5493164, 62.0, 6.0, 2.0, 0
93644, -0.9425049, 0.2133789, 0.28198242, 5.4931636, 3.2958982, 0.7324218, 62.0, 6.0, 2.0, 0
93672, -0.95544434, 0.23803711, 0.303833, 4.699707, 8.850098, -0.61035156, 62.0, 6.0, 2.0, 0
93697, -0.95336914, 0.21875, 0.31640625, 5.8593745, 17.76123, -3.601074, 62.0, 6.0, 2.0, 0
93719, -0.9707031, 0.21008301, 0.37158203, -0.61035156, 26.489256, -3.6621091, 58.0, 11.0, 4.0, 0
93743, -0.9798584, 0.22729492, 0.43481445, 5.187988, 37.719727, -2.1972656, 58.0, 11.0, 4.0, 0
93761, -0.9904785, 0.23693848, 0.43920898, 22.338865, 51.75781, 1.6479491, 58.0, 11.0, 4.0, 0
93782, -0.97265625, 0.21789551, 0.40112305, 29.296873, 62.31689, 6.469726, 58.0, 11.0, 4.0, 0
93807, -0.96655273, 0.23571777, 0.5, 33.14209, 70.55664, 9.887695, 55.0, 11.0, 8.0, 0
93830, -1.0019531, 0.16210938, 0.53186035, 40.40527, 80.68847, 14.709472, 55.0, 11.0, 8.0, 0
93852, -1.0262451, 0.13049316, 0.52734375, 40.52734, 92.8955, 18.249512, 55.0, 11.0, 8.0, 0
93869, -1.0013428, 0.16821289, 0.5135498, 39.55078, 102.539055, 18.737793, 55.0, 11.0, 8.0, 0
93887, -0.9536133, 0.16577148, 0.5169678, 33.203125, 107.54394, 19.042969, 55.0, 11.0, 8.0, 0
93912, -0.9310303, 0.14013672, 0.5772705, 23.071287, 110.229485, 19.77539, 53.0, 11.0, 16.0, 0
93935, -0.932251, 0.08276367, 0.63098145, 7.568359, 118.71337, 23.498533, 53.0, 11.0, 16.0, 0
93964, -0.9135742, 0.08911133, 0.6287842, -14.160155, 125.854485, 22.094725, 53.0, 11.0, 16.0, 0
94012, -0.8654785, 0.15307617, 0.72180176, -35.15625, 134.70459, 15.319823, 57.0, 13.0, 12.0, 0
93987, -0.86376953, 0.13024902, 0.638916, -37.78076, 130.31006, 18.066406, 53.0, 11.0, 16.0, 0
94035, -0.7930908, 0.13964844, 0.73205566, -30.578611, 138.5498, 15.99121, 57.0, 13.0, 12.0, 0
94061, -0.7558594, 0.14855957, 0.76416016, -41.320797, 140.19775, 14.038085, 57.0, 13.0, 12.0, 0
94083, -0.69885254, 0.19812012, 0.8054199, -29.96826, 141.47949, 9.82666, 57.0, 13.0, 12.0, 0
94106, -0.6549072, 0.15637207, 0.82421875, -21.667479, 142.57812, 11.047362, 57.0, 12.0, 14.0, 0
94128, -0.6229248, 0.14477539, 0.852417, -24.963377, 142.7002, 11.1083975, 57.0, 12.0, 14.0, 0
94146, -0.61083984, 0.19482422, 0.8946533, -18.127441, 144.59229, 8.056641, 57.0, 12.0, 14.0, 0
94169, -0.55078125, 0.21459961, 0.87524414, -2.6245115, 143.85986, 5.4931636, 57.0, 12.0, 14.0, 0
94186, -0.47753906, 0.1595459, 0.8673096, 0.3662109, 140.93018, 7.3242183, 57.0, 12.0, 14.0, 0
94210, -0.43359375, 0.14160156, 0.9058838, -3.1127927, 139.5874, 4.5776367, 54.0, 9.0, 18.0, 0
94230, -0.4260254, 0.16796875, 0.967041, -1.8920897, 143.24951, 3.967285, 54.0, 9.0, 18.0, 0
94255, -0.3791504, 0.1665039, 0.9185791, -1.7700194, 146.11816, 4.699707, 54.0, 9.0, 18.0, 0
94273, -0.33496094, 0.17712402, 0.8753662, -14.038085, 137.87842, 5.310058, 54.0, 9.0, 18.0, 0
94295, -0.20129395, 0.10083008, 0.89086914, -30.33447, 133.72803, 9.94873, 54.0, 9.0, 18.0, 0
94322, -0.18798828, 0.123535156, 0.9729004, -38.81836, 136.84082, 7.8124995, 54.0, 6.0, 21.0, 0
94344, -0.15930176, 0.29919434, 0.9211426, 8.850098, 137.26807, -0.48828122, 54.0, 6.0, 21.0, 0
94364, -0.12487793, 0.29309082, 0.8786621, 27.893064, 134.39941, 2.0751953, 54.0, 6.0, 21.0, 0
94385, -0.014160156, 0.13415527, 0.8093262, 17.578125, 119.68993, 13.305663, 54.0, 6.0, 21.0, 0
94403, 0.011962891, 0.099243164, 0.8444824, 0.18310545, 117.67577, 14.648437, 54.0, 6.0, 21.0, 0
94423, 0.02746582, 0.12426758, 0.9337158, -20.38574, 122.192375, 9.460449, 54.0, 8.0, 26.0, 0
94449, 0.12182617, 0.2998047, 0.82507324, 10.986327, 118.22509, -0.7324218, 54.0, 8.0, 26.0, 0
94470, 0.17333984, 0.23303223, 0.8157959, 31.677244, 111.20605, 5.5541987, 54.0, 8.0, 26.0, 0
94489, 0.18078613, 0.16503906, 0.87719727, 24.230955, 107.91015, 11.1083975, 54.0, 8.0, 26.0, 0
94506, 0.20776367, 0.16259766, 0.8913574, 9.155273, 107.11669, 8.300781, 55.0, 4.0, 31.0, 0
94530, 0.29577637, 0.23400879, 0.8409424, 2.868652, 102.84423, 3.967285, 55.0, 4.0, 31.0, 0
94548, 0.3244629, 0.24487305, 0.8248291, 14.22119, 100.95214, 4.9438477, 55.0, 4.0, 31.0, 0
94570, 0.36364746, 0.20678711, 0.7932129, 22.52197, 96.00829, 8.056641, 55.0, 4.0, 31.0, 0
94588, 0.40820312, 0.15539551, 0.8314209, 15.197753, 93.50585, 10.0708, 55.0, 4.0, 31.0, 0
94606, 0.4136963, 0.19726562, 0.84558105, 10.742187, 96.618645, 6.7138667, 55.0, 4.0, 31.0, 0
94632, 0.45507812, 0.22766113, 0.7722168, 13.8549795, 92.834465, 4.638672, 56.0, 0.0, 33.0, 0
94654, 0.5074463, 0.13903809, 0.74658203, 8.056641, 86.42577, 8.544922, 56.0, 0.0, 33.0, 0
94676, 0.5345459, 0.15917969, 0.75439453, 4.9438477, 86.547844, 6.835937, 56.0, 0.0, 33.0, 0
94694, 0.5489502, 0.17089844, 0.76501465, 2.319336, 85.144035, 2.807617, 56.0, 0.0, 33.0, 0
94712, 0.5782471, 0.18823242, 0.7203369, 6.2866206, 82.45849, 1.6479491, 52.0, 0.0, 32.0, 0
94740, 0.60217285, 0.1751709, 0.70910645, 14.282226, 80.50536, 0.42724606, 52.0, 0.0, 32.0, 0
94759, 0.6176758, 0.15661621, 0.6801758, 17.8833, 78.67432, 0.122070305, 52.0, 0.0, 32.0, 0
94780, 0.6520996, 0.14941406, 0.65441895, 13.305663, 75.56152, 0.18310545, 52.0, 0.0, 32.0, 0
94798, 0.67163086, 0.14025879, 0.6628418, 0.97656244, 73.36426, -0.7324218, 52.0, 0.0, 32.0, 0
94819, 0.68395996, 0.15917969, 0.6512451, -3.601074, 73.05908, -1.8920897, 54.0, -5.0, 37.0, 0
94837, 0.70983887, 0.1928711, 0.6590576, 4.638672, 72.5708, -3.9062498, 54.0, -5.0, 37.0, 0
94878, 0.73742676, 0.16442871, 0.58410645, 12.512206, 68.66455, -2.5024414, 54.0, -5.0, 37.0, 0
94860, 0.7216797, 0.17211914, 0.6257324, 13.488769, 70.92285, -3.173828, 54.0, -5.0, 37.0, 0
94896, 0.75439453, 0.15527344, 0.5546875, 2.0751953, 66.77246, -2.5634763, 54.0, -5.0, 37.0, 0
94918, 0.76745605, 0.13208008, 0.5510254, -5.4931636, 65.7959, -2.9296873, 51.0, -5.0, 33.0, 0
94936, 0.78759766, 0.15917969, 0.539917, -12.573241, 63.59863, -4.0893555, 51.0, -5.0, 33.0, 0
94963, 0.80444336, 0.17285156, 0.51049805, 0.3662109, 60.913082, -4.272461, 51.0, -5.0, 33.0, 0
94984, 0.80810547, 0.15283203, 0.4963379, 8.300781, 56.03027, -1.5258788, 51.0, -5.0, 33.0, 0
95002, 0.8120117, 0.13879395, 0.48913574, 7.202148, 54.8706, -1.4648436, 51.0, -5.0, 33.0, 0
95025, 0.82299805, 0.12866211, 0.47888184, 1.9531249, 52.917477, -2.0141602, 50.0, -11.0, 35.0, 0
95043, 0.84436035, 0.1541748, 0.44470215, 1.7089843, 49.499508, -2.6855466, 50.0, -11.0, 35.0, 0
95083, 0.8536377, 0.13513184, 0.41687012, 8.911133, 43.762203, -5.004883, 50.0, -11.0, 35.0, 0
95066, 0.8498535, 0.14013672, 0.41345215, 5.3710933, 45.898434, -4.272461, 50.0, -11.0, 35.0, 0
95101, 0.8742676, 0.13769531, 0.39624023, 14.526366, 37.41455, -3.173828, 50.0, -11.0, 35.0, 0
95146, 0.8800049, 0.14172363, 0.36889648, 3.2958982, 32.65381, -2.5024414, 50.0, -15.0, 33.0, 0
95166, 0.89208984, 0.15405273, 0.36071777, 1.5258788, 28.564451, -2.9296873, 50.0, -15.0, 33.0, 0
95183, 0.89086914, 0.1394043, 0.3720703, 7.5073237, 25.146482, -2.807617, 50.0, -15.0, 33.0, 0
95201, 0.88916016, 0.11206055, 0.39038086, 10.375976, 24.04785, -1.9531249, 50.0, -15.0, 33.0, 0
95227, 0.9024658, 0.11682129, 0.35803223, 5.9204097, 21.362303, -1.0375977, 49.0, -14.0, 31.0, 0
95246, 0.9013672, 0.11730957, 0.35095215, -2.9296873, 16.540527, -0.7324218, 49.0, -14.0, 31.0, 0
95269, 0.9038086, 0.111083984, 0.37573242, -2.4414062, 15.930175, -0.9155273, 49.0, -14.0, 31.0, 0
95287, 0.9082031, 0.13513184, 0.40942383, 5.9204097, 15.624999, -0.122070305, 49.0, -14.0, 31.0, 0
95310, 0.916626, 0.14331055, 0.39318848, 6.7138667, 14.770507, -0.42724606, 49.0, -14.0, 31.0, 0
95328, 0.9199219, 0.13244629, 0.36621094, -0.61035156, 13.916015, -1.8920897, 48.0, -17.0, 32.0, 0
95353, 0.92211914, 0.1484375, 0.34362793, -1.2207031, 13.610839, -3.4179685, 48.0, -17.0, 32.0, 0
95375, 0.93603516, 0.14672852, 0.3215332, 6.896972, 12.20703, -3.7231443, 48.0, -17.0, 32.0, 0
95393, 0.9379883, 0.12011719, 0.31799316, 8.178711, 10.803222, -2.807617, 48.0, -17.0, 32.0, 0
95415, 0.9324951, 0.09814453, 0.30932617, 7.690429, 8.300781, -0.3662109, 48.0, -16.0, 31.0, 0
95438, 0.932251, 0.103515625, 0.28027344, -4.8217773, 3.8452146, 0.8544921, 48.0, -16.0, 31.0, 0
95459, 0.9293213, 0.11328125, 0.28173828, -8.605957, 1.586914, 0.7324218, 48.0, -16.0, 31.0, 0
95477, 0.9202881, 0.123168945, 0.2956543, -4.699707, -6.347656, 3.0517576, 48.0, -16.0, 31.0, 0
95500, 0.9390869, 0.10632324, 0.29284668, -1.3427733, -9.460449, 2.4414062, 48.0, -16.0, 31.0, 0
95527, 0.91015625, 0.10632324, 0.3199463, -5.615234, -12.878417, 1.0375977, 52.0, -14.0, 29.0, 0
95550, 0.9000244, 0.12646484, 0.34753418, -12.268065, -17.150879, 1.7089843, 52.0, -14.0, 29.0, 0
95588, 0.91516113, 0.1430664, 0.28503418, -2.5634763, -24.963377, 0.18310545, 52.0, -14.0, 29.0, 0
95609, 0.91918945, 0.103637695, 0.28967285, -10.131835, -31.98242, 0.9155273, 46.0, -15.0, 33.0, 0
95633, 0.9244385, 0.11279297, 0.28845215, -8.666992, -41.687008, 4.9438477, 46.0, -15.0, 33.0, 0
95658, 0.8956299, 0.13781738, 0.26000977, -4.5776367, -48.400875, 6.5307612, 46.0, -15.0, 33.0, 0
95679, 0.8704834, 0.11853027, 0.25891113, -5.249023, -51.940914, 6.6528316, 46.0, -15.0, 33.0, 0
95719, 0.8392334, 0.10900879, 0.26245117, -12.817382, -74.035645, 11.230468, 50.0, -10.0, 30.0, 0
95696, 0.8640137, 0.12036133, 0.25170898, -10.253905, -67.81006, 9.94873, 46.0, -15.0, 33.0, 0
95742, 0.8041992, 0.09655762, 0.28527832, -26.550291, -91.73583, 15.502929, 50.0, -10.0, 30.0, 0
95764, 0.7515869, 0.13391113, 0.36010742, -28.32031, -96.80175, 15.99121, 50.0, -10.0, 30.0, 0
95782, 0.7363281, 0.2244873, 0.366333, -12.756347, -104.49218, 14.709472, 50.0, -10.0, 30.0, 0
95805, 0.73339844, 0.26733398, 0.3609619, 9.033203, -119.01855, 13.671874, 50.0, -10.0, 30.0, 0
95826, 0.68188477, 0.12084961, 0.42529297, -24.475096, -134.33838, 20.62988, 51.0, -4.0, 30.0, 0
95850, 0.5657959, 0.1538086, 0.664917, -41.687008, -125.54931, 17.51709, 51.0, -4.0, 30.0, 0
95872, 0.5675049, 0.45910645, 0.6187744, 7.7514644, -127.01415, 6.6528316, 51.0, -4.0, 30.0, 0
95889, 0.5620117, 0.44274902, 0.50891113, 67.0166, -145.56885, 6.2866206, 51.0, -4.0, 30.0, 0
95907, 0.5404053, -0.010375977, 0.60266113, 45.8374, -153.1372, 17.211914, 53.0, 1.0, 28.0, 0
95936, 0.44873047, -0.18225098, 0.8902588, -43.518063, -141.17432, 23.437498, 53.0, 1.0, 28.0, 0
95957, 0.37365723, 0.5114746, 0.9975586, -16.967773, -127.19726, -2.807617, 53.0, 1.0, 28.0, 0
95979, 0.40405273, 0.47546387, 0.8018799, 74.58496, -136.90186, -0.8544921, 53.0, 1.0, 28.0, 0
96005, 0.39941406, 0.19909668, 0.71765137, 92.468254, -142.7002, 6.1645503, 53.0, 1.0, 28.0, 0
96026, 0.31628418, -0.08581543, 0.97143555, 23.803709, -135.55908, 7.7514644, 51.0, 5.0, 29.0, 0
96049, 0.16503906, 0.0012207031, 1.1943359, -96.00829, -113.22021, 5.9204097, 51.0, 5.0, 29.0, 0
96071, 0.23449707, 0.4888916, 0.9667969, -40.588375, -104.675285, -7.0800776, 51.0, 5.0, 29.0, 0
96107, 0.21472168, 0.18078613, 0.6591797, 4.699707, -132.8125, 10.925292, 51.0, 5.0, 29.0, 0
96129, 0.07775879, 0.025878906, 1.0240479, -15.441894, -129.3335, 8.7890625, 52.0, 10.0, 26.0, 0
96149, -0.026367188, 0.06604004, 1.1802979, -39.916992, -114.86816, 12.023925, 52.0, 10.0, 26.0, 0
96175, -0.026245117, 0.38452148, 0.99121094, 2.807617, -118.22509, 5.187988, 52.0, 10.0, 26.0, 0
96197, -0.010009766, 0.24072266, 0.765625, 24.16992, -130.18799, 9.460449, 52.0, 10.0, 26.0, 0
96220, -0.11828613, 0.14611816, 1.0118408, 8.605957, -125.1831, 7.690429, 55.0, 12.0, 17.0, 0
96242, -0.2175293, 0.16223145, 1.1114502, 22.03369, -121.15478, 4.211426, 55.0, 12.0, 17.0, 0
96264, -0.2545166, 0.2088623, 1.0731201, 40.52734, -115.47851, 1.4038085, 55.0, 12.0, 17.0, 0
96304, -0.24133301, 0.20422363, 0.92822266, 26.000975, -117.30956, 8.422852, 55.0, 12.0, 17.0, 0
96281, -0.23779297, 0.19995117, 0.9267578, 28.808592, -115.53954, 4.3945312, 55.0, 12.0, 17.0, 0
96321, -0.32434082, 0.17468262, 1.0708008, 62.377926, -112.30468, 11.657714, 55.0, 14.0, 19.0, 0
96347, -0.4281006, 0.026245117, 1.0827637, 54.992672, -106.689445, 18.005371, 55.0, 14.0, 19.0, 0
96365, -0.42285156, 0.119262695, 1.0240479, 13.671874, -100.21972, 14.343261, 55.0, 14.0, 19.0, 0
96383, -0.3963623, 0.24133301, 0.87683105, 2.4414062, -95.214836, 7.7514644, 55.0, 14.0, 19.0, 0
96406, -0.4251709, 0.17407227, 0.89782715, 6.774902, -92.10204, -1.4648436, 55.0, 14.0, 19.0, 0
96423, -0.42626953, 0.17980957, 0.95422363, 19.16504, -91.12548, -13.122558, 54.0, 16.0, 21.0, 0
96448, -0.46289062, 0.13232422, 0.8909912, 28.015135, -92.712395, -13.000487, 54.0, 16.0, 21.0, 0
96470, -0.47375488, 0.09423828, 0.83361816, 10.620116, -95.092766, -11.047362, 54.0, 16.0, 21.0, 0
96497, -0.4814453, 0.107666016, 0.7746582, -9.216309, -98.510735, -12.573241, 54.0, 16.0, 21.0, 0
96518, -0.57543945, 0.14904785, 0.8017578, -17.8833, -101.56249, -15.8081045, 55.0, 14.0, 17.0, 0
96539, -0.66223145, 0.16711426, 0.82910156, 3.3569334, -100.402824, -18.676758, 55.0, 14.0, 17.0, 0
96562, -0.6710205, 0.20263672, 0.74279785, 27.282713, -101.19628, -15.99121, 55.0, 14.0, 17.0, 0
96583, -0.6102295, 0.2076416, 0.6497803, 22.03369, -107.23876, -16.479492, 55.0, 14.0, 17.0, 0
96606, -0.6279297, 0.17663574, 0.66137695, -5.1269526, -113.891594, -20.080564, 55.0, 14.0, 17.0, 0
96630, -0.77697754, 0.10961914, 0.7174072, -11.840819, -114.80712, -25.695799, 50.0, 14.0, 12.0, 0
96652, -0.8284912, 0.17236328, 0.696167, -1.0375977, -113.34228, -27.099607, 50.0, 14.0, 12.0, 0
96675, -0.87524414, 0.23925781, 0.6373291, 6.103515, -112.91503, -27.587889, 50.0, 14.0, 12.0, 0
96692, -0.89575195, 0.18530273, 0.56433105, -1.586914, -109.19189, -24.475096, 50.0, 14.0, 12.0, 0
96751, -0.93847656, 0.16955566, 0.6242676, -5.187988, -73.97461, -19.77539, 58.0, 12.0, 5.0, 0
96773, -0.9099121, 0.19372559, 0.5472412, -9.094238, -65.49072, -14.465331, 58.0, 12.0, 5.0, 0
96795, -0.8911133, 0.2290039, 0.5209961, -9.70459, -59.44824, -10.375976, 58.0, 12.0, 5.0, 0
96813, -0.89245605, 0.21813965, 0.5313721, -6.9580073, -54.13818, -8.972168, 55.0, 11.0, 3.0, 0
96838, -0.88098145, 0.17504883, 0.52001953, -16.845703, -48.278805, -8.666992, 55.0, 11.0, 3.0, 0
96899, -0.89123535, 0.25891113, 0.39294434, 8.7890625, -57.55615, -7.93457, 55.0, 11.0, 3.0, 0
96917, -0.9260254, 0.23950195, 0.38964844, 11.657714, -55.78613, -9.155273, 57.0, 8.0, 0.0, 0
96940, -0.91296387, 0.2084961, 0.336792, 4.760742, -52.307125, -10.681151, 57.0, 8.0, 0.0, 0
96958, -0.91381836, 0.21923828, 0.35583496, -0.18310545, -46.752926, -11.169433, 57.0, 8.0, 0.0, 0
96982, -0.9223633, 0.23095703, 0.38952637, 3.5400388, -43.457027, -11.840819, 57.0, 8.0, 0.0, 0
97003, -0.92089844, 0.25463867, 0.3223877, 13.0615225, -44.43359, -11.047362, 57.0, 8.0, 0.0, 0
97027, -0.9219971, 0.24084473, 0.26135254, 11.779784, -44.92187, -10.19287, 59.0, 10.0, 4.0, 0
97049, -0.94433594, 0.25183105, 0.28442383, 8.544922, -40.40527, -11.1083975, 59.0, 10.0, 4.0, 0
97092, -0.93518066, 0.2536621, 0.24865723, 14.465331, -41.442867, -12.329101, 59.0, 10.0, 4.0, 0
97072, -0.9259033, 0.27685547, 0.25341797, 15.563964, -41.01562, -12.08496, 59.0, 10.0, 4.0, 0
97118, -0.9472656, 0.23132324, 0.28100586, 11.535644, -38.69629, -9.765625, 56.0, 8.0, 5.0, 0
97141, -0.92419434, 0.26989746, 0.20739746, 14.892577, -33.14209, -6.2255855, 56.0, 8.0, 5.0, 0
97162, -0.91882324, 0.27441406, 0.16345215, 8.911133, -31.494139, -9.460449, 56.0, 8.0, 5.0, 0
97180, -0.9425049, 0.26281738, 0.2355957, 2.319336, -30.578611, -10.864257, 56.0, 8.0, 5.0, 0
97225, -0.95739746, 0.28393555, 0.22094727, 10.375976, -30.883787, -5.4931636, 55.0, 9.0, 0.0, 0
97202, -0.9481201, 0.27172852, 0.27539062, 5.5541987, -30.33447, -7.8124995, 56.0, 8.0, 5.0, 0
97243, -0.95410156, 0.2475586, 0.13586426, 7.4462886, -29.907225, -6.347656, 55.0, 9.0, 0.0, 0
97271, -0.9547119, 0.27331543, 0.21374512, -0.48828122, -26.794432, -6.1645503, 55.0, 9.0, 0.0, 0
97292, -0.94677734, 0.24487305, 0.22021484, 2.1362305, -24.04785, -5.187988, 55.0, 9.0, 0.0, 0
97309, -0.9259033, 0.28295898, 0.2487793, 6.2866206, -19.592285, -3.7841794, 55.0, 9.0, 0.0, 0
97326, -0.9226074, 0.2800293, 0.23400879, 5.8593745, -20.62988, -2.7465818, 59.0, 10.0, 5.0, 0
97351, -0.9556885, 0.22607422, 0.14648438, 2.319336, -14.160155, -0.793457, 59.0, 10.0, 5.0, 0
97374, -0.9321289, 0.289917, 0.15734863, 1.4648436, -7.690429, -2.868652, 59.0, 10.0, 5.0, 0
97415, -0.9493408, 0.25891113, 0.15539551, 10.681151, -11.169433, 0.3662109, 58.0, 11.0, 3.0, 0
97396, -0.93310547, 0.29516602, 0.14929199, 6.469726, -9.521484, -1.3427733, 59.0, 10.0, 5.0, 0
97439, -0.9550781, 0.2758789, 0.15258789, 15.380858, -8.300781, 2.1972656, 58.0, 11.0, 3.0, 0
97460, -0.94299316, 0.2664795, 0.10876465, 21.545408, -6.5307612, 0.30517578, 58.0, 11.0, 3.0, 0
97482, -0.9382324, 0.29089355, 0.15222168, 23.742674, -4.699707, -0.30517578, 58.0, 11.0, 3.0, 0
97501, -0.93481445, 0.30090332, 0.14013672, 33.569336, -4.5776367, 4.211426, 58.0, 11.0, 3.0, 0
97522, -0.92578125, 0.27514648, 0.09667969, 28.747557, -4.4555664, 5.4931636, 60.0, 10.0, 5.0, 0
97550, -0.9382324, 0.31811523, 0.13317871, 18.432617, -0.793457, 2.0141602, 60.0, 10.0, 5.0, 0
97571, -0.9637451, 0.28393555, 0.16430664, 21.91162, 0.61035156, 1.8920897, 60.0, 10.0, 5.0, 0
97588, -0.96606445, 0.2718506, 0.19970703, 26.367186, 9.887695, 3.2958982, 60.0, 10.0, 5.0, 0
97610, -0.96936035, 0.25927734, 0.24987793, 28.19824, 19.714355, 5.7983394, 60.0, 10.0, 5.0, 0
97632, -0.94506836, 0.28015137, 0.18762207, 28.137205, 24.780272, 6.7138667, 55.0, 9.0, 9.0, 0
97660, -0.9925537, 0.25830078, 0.30639648, 19.104004, 34.179688, 5.8593745, 55.0, 9.0, 9.0, 0
97681, -1.0305176, 0.2659912, 0.4296875, 24.475096, 40.344234, 5.8593745, 55.0, 9.0, 9.0, 0
97703, -1.0263672, 0.28308105, 0.38757324, 61.401363, 69.51904, 9.94873, 55.0, 9.0, 9.0, 0
97724, -0.9505615, 0.25561523, 0.19018555, 62.31689, 75.19531, 16.662598, 59.0, 10.0, 7.0, 0
97742, -0.93811035, 0.22229004, 0.36767578, 25.573729, 78.24707, 18.859863, 59.0, 10.0, 7.0, 0
97765, -1.0284424, 0.17883301, 0.65649414, 19.104004, 91.79687, 20.38574, 59.0, 10.0, 7.0, 0
97787, -1.1003418, 0.17822266, 0.6300049, 57.006832, 112.97607, 21.91162, 59.0, 10.0, 7.0, 0
97827, -1.0424805, 0.15112305, 0.51342773, 73.48633, 144.47021, 32.65381, 55.0, 10.0, 13.0, 0
97851, -0.9744873, 0.06738281, 0.69421387, 44.738766, 143.67676, 42.968746, 55.0, 10.0, 13.0, 0
97869, -0.96398926, 0.0625, 0.713501, 15.502929, 149.96338, 44.7998, 55.0, 10.0, 13.0, 0
97891, -0.95910645, 0.16113281, 0.6599121, 17.456055, 154.29688, 41.198727, 55.0, 10.0, 13.0, 0
97908, -0.96777344, 0.15515137, 0.6627197, 27.83203, 161.19383, 35.217285, 55.0, 10.0, 13.0, 0
97926, -0.9376221, 0.07824707, 0.7357178, 23.92578, 163.51317, 37.231445, 57.0, 9.0, 19.0, 0
97950, -0.8244629, 0.057617188, 0.78149414, 9.58252, 161.68211, 44.31152, 57.0, 9.0, 19.0, 0
97968, -0.79296875, 0.076660156, 0.76745605, 8.239746, 163.14696, 46.142574, 57.0, 9.0, 19.0, 0
97994, -0.75390625, 0.03125, 0.7237549, -2.0141602, 163.5742, 47.0581, 57.0, 9.0, 19.0, 0
98015, -0.73779297, 0.023803711, 0.82250977, -17.39502, 169.18944, 37.53662, 54.0, 9.0, 20.0, 0
98078, -0.571167, 0.09753418, 0.8514404, -1.0375977, 168.0908, 30.395506, 54.0, 9.0, 20.0, 0
98060, -0.60961914, 0.079589844, 0.861084, 0.061035153, 170.53221, 31.799314, 54.0, 9.0, 20.0, 0
98043, -0.67626953, 0.024780273, 0.9232178, -14.160155, 169.86082, 33.569336, 54.0, 9.0, 20.0, 0
98123, -0.40075684, 0.026489258, 0.9605713, 10.925292, 159.24072, 33.75244, 55.0, 8.0, 25.0, 0
98146, -0.3935547, 0.05822754, 0.9859619, 10.864257, 162.41454, 29.357908, 55.0, 8.0, 25.0, 0
98168, -0.37976074, 0.030029297, 0.98828125, 18.249512, 164.97801, 27.160643, 55.0, 8.0, 25.0, 0
98186, -0.27990723, 7.324219E-4, 0.96533203, 25.634764, 162.10936, 26.18408, 55.0, 8.0, 25.0, 0
98207, -0.13464355, -0.04663086, 0.91625977, 19.348145, 154.66309, 32.836914, 55.0, 8.0, 25.0, 0
98224, -0.099243164, -0.09802246, 0.9141846, 4.4555664, 151.00098, 42.236324, 52.0, 5.0, 25.0, 0
98249, -0.072021484, -0.045410156, 0.8590088, 0.5493164, 148.13232, 41.992184, 52.0, 5.0, 25.0, 0
98267, -0.0059814453, 0.033691406, 0.85595703, 7.263183, 143.24951, 38.33008, 52.0, 5.0, 25.0, 0
98285, 0.05529785, -0.022094727, 0.8536377, 1.0986328, 139.03809, 37.65869, 52.0, 5.0, 25.0, 0
98309, 0.07873535, -0.041625977, 0.8865967, -7.8124995, 139.52637, 32.836914, 52.0, 5.0, 25.0, 0
98330, 0.16821289, 0.079833984, 0.8408203, 34.66797, 137.81738, 23.559568, 50.0, 3.0, 30.0, 0
98356, 0.25341797, 0.033325195, 0.7969971, 39.855957, 131.28662, 25.81787, 50.0, 3.0, 30.0, 0
98378, 0.2890625, -0.017089844, 0.81933594, 17.822266, 126.342766, 28.991697, 50.0, 3.0, 30.0, 0
98396, 0.31799316, -0.033447266, 0.836792, -3.173828, 125.42724, 28.07617, 50.0, 3.0, 30.0, 0
98418, 0.37817383, 0.05053711, 0.7755127, 6.5307612, 122.436516, 24.475096, 47.0, -1.0, 36.0, 0
98438, 0.4202881, 0.043945312, 0.7322998, 20.996092, 114.19677, 25.207518, 47.0, -1.0, 36.0, 0
98461, 0.45141602, -0.0028076172, 0.723999, 17.578125, 104.49218, 28.137205, 47.0, -1.0, 36.0, 0
98479, 0.46520996, 0.0032958984, 0.7071533, 6.1645503, 99.91454, 28.930662, 47.0, -1.0, 36.0, 0
98498, 0.5076904, 0.04711914, 0.67297363, 6.469726, 94.66552, 25.085447, 47.0, -1.0, 36.0, 0
98520, 0.55859375, 0.016357422, 0.6994629, 24.41406, 89.5996, 18.981934, 50.0, -5.0, 34.0, 0
98545, 0.5749512, 0.006591797, 0.7081299, 12.573241, 86.914055, 16.235352, 50.0, -5.0, 34.0, 0
98563, 0.6126709, -0.007446289, 0.71362305, -11.718749, 85.20507, 13.610839, 50.0, -5.0, 34.0, 0
98585, 0.65844727, 0.044189453, 0.64904785, -18.737793, 83.74023, 8.850098, 50.0, -5.0, 34.0, 0
98607, 0.69177246, 0.05419922, 0.6043701, -4.9438477, 79.711914, 9.033203, 50.0, -5.0, 34.0, 0
98625, 0.7114258, 0.060424805, 0.6011963, -0.42724606, 74.645996, 11.596679, 49.0, -6.0, 35.0, 0
98649, 0.732666, 0.025146484, 0.5904541, -16.296387, 68.90869, 11.840819, 49.0, -6.0, 35.0, 0
98667, 0.74487305, 0.037963867, 0.57836914, -29.907225, 65.73486, 8.850098, 49.0, -6.0, 35.0, 0
98685, 0.7642822, 0.084472656, 0.5467529, -16.235352, 63.903805, 5.3710933, 49.0, -6.0, 35.0, 0
98707, 0.79125977, 0.103027344, 0.5338135, 8.728027, 60.974117, 1.8310546, 49.0, -6.0, 35.0, 0
98733, 0.78796387, 0.021606445, 0.5695801, 0.42724606, 57.617184, -1.159668, 49.0, -9.0, 35.0, 0
98756, 0.802124, 0.04248047, 0.52648926, -15.502929, 57.373043, -4.0893555, 49.0, -9.0, 35.0, 0
98776, 0.83532715, 0.051635742, 0.49353027, -9.399414, 56.15234, -5.615234, 49.0, -9.0, 35.0, 0
98793, 0.85058594, 0.049072266, 0.48937988, 7.3242183, 55.358883, -6.2866206, 49.0, -9.0, 35.0, 0
98814, 0.8436279, 0.02709961, 0.47875977, 12.145995, 54.74853, -5.8593745, 48.0, -12.0, 37.0, 0
98833, 0.85668945, 0.018676758, 0.42980957, -0.48828122, 50.048824, -4.8828125, 48.0, -12.0, 37.0, 0
98860, 0.86376953, 0.0057373047, 0.4000244, -11.779784, 45.288082, -4.0893555, 48.0, -12.0, 37.0, 0
98883, 0.8840332, -0.001953125, 0.3857422, -7.0190425, 39.733887, -3.2958982, 48.0, -12.0, 37.0, 0
98904, 0.8795166, 0.011108398, 0.39782715, 6.7138667, 35.705566, -1.8310546, 48.0, -12.0, 37.0, 0
98927, 0.8741455, 0.024780273, 0.40319824, 6.2866206, 31.372068, -1.159668, 46.0, -11.0, 30.0, 0
98950, 0.883667, 0.02368164, 0.39343262, -6.7138667, 26.611326, -3.4179685, 46.0, -11.0, 30.0, 0
98973, 0.9074707, 0.026977539, 0.39794922, -4.4555664, 25.756834, -3.4179685, 46.0, -11.0, 30.0, 0
98993, 0.9139404, 0.024902344, 0.4156494, 6.408691, 24.53613, -4.0893555, 46.0, -11.0, 30.0, 0
99014, 0.9169922, 0.014282227, 0.3828125, 5.249023, 22.27783, -3.2958982, 47.0, -16.0, 37.0, 0
99038, 0.93896484, 0.025390625, 0.26245117, 0.8544921, 15.686034, -0.7324218, 47.0, -16.0, 37.0, 0
99056, 0.9490967, 0.008056641, 0.119140625, -5.187988, -1.5258788, 3.7231443, 47.0, -16.0, 37.0, 0
99077, 0.9622803, -0.026000977, 0.10961914, -8.361816, -22.705076, 7.8124995, 47.0, -16.0, 37.0, 0
99104, 0.8730469, 4.8828125E-4, 0.23535156, -11.047362, -46.752926, 9.277344, 47.0, -16.0, 37.0, 0
99126, 0.8548584, 0.022338867, 0.24084473, -8.239746, -60.913082, 10.986327, 48.0, -14.0, 33.0, 0
99148, 0.8626709, 0.044433594, 0.16247559, 8.300781, -82.94677, 13.549804, 48.0, -14.0, 33.0, 0
99174, 0.8395996, 0.017089844, 0.15722656, 9.460449, -90.942375, 13.549804, 48.0, -14.0, 33.0, 0
99192, 0.78125, 0.02355957, 0.21057129, -0.122070305, -115.53954, 12.939452, 48.0, -14.0, 33.0, 0
99216, 0.73132324, 0.079956055, 0.2578125, 4.5166016, -127.38036, 13.183593, 48.0, -6.0, 40.0, 0
99239, 0.69750977, 0.15820312, 0.2689209, 15.930175, -138.5498, 10.620116, 48.0, -6.0, 40.0, 0
99262, 0.61364746, 0.06982422, 0.52368164, 16.418457, -148.6206, 7.690429, 48.0, -6.0, 40.0, 0
99285, 0.59936523, 0.14624023, 0.60705566, 22.705076, -159.30176, -2.319336, 48.0, -6.0, 40.0, 0
99305, 0.52893066, 0.17004395, 0.65270996, 31.921385, -157.77588, -8.666992, 48.0, -6.0, 40.0, 0
99327, 0.4897461, 0.15100098, 0.6323242, 27.282713, -161.98729, -15.502929, 49.0, -4.0, 35.0, 0
99350, 0.45751953, 0.083862305, 0.7130127, 29.84619, -166.80907, -21.301268, 49.0, -4.0, 35.0, 0
99373, 0.35473633, -0.024780273, 0.9425049, 18.859863, -165.77147, -17.63916, 49.0, -4.0, 35.0, 0
99391, 0.32995605, 0.026000977, 0.93652344, -4.0893555, -151.97754, -19.470215, 49.0, -4.0, 35.0, 0
99412, 0.2927246, 0.11657715, 0.7515869, -11.474608, -155.27344, -23.193357, 48.0, 1.0, 31.0, 0
99441, 0.2109375, -0.044921875, 0.89953613, -13.732909, -157.89795, -24.41406, 48.0, 1.0, 31.0, 0
99466, 0.11010742, -0.020385742, 1.1116943, -3.2958982, -151.97754, -26.550291, 48.0, 1.0, 31.0, 0
99488, 0.11254883, 0.12414551, 0.93200684, 4.638672, -148.98682, -25.878904, 48.0, 1.0, 31.0, 0
99533, 0.01965332, -0.1772461, 1.0465088, -71.04492, -151.00098, -29.235838, 50.0, 7.0, 33.0, 0
99578, -0.16748047, 0.24645996, 1.0441895, 90.02685, -133.05664, -28.930662, 50.0, 7.0, 33.0, 0
99591, -0.16784668, 0.13757324, 0.9178467, 27.099607, -136.04736, -21.301268, 50.0, 7.0, 33.0, 0
99612, -0.13684082, -0.07702637, 0.97351074, -78.61328, -144.89746, -31.249998, 53.0, 9.0, 19.0, 0
99636, -0.29406738, -0.20922852, 1.1253662, -84.53368, -136.41357, -24.16992, 53.0, 9.0, 19.0, 0
99659, -0.40454102, 0.119262695, 1.1289062, 27.282713, -127.07519, -33.87451, 53.0, 9.0, 19.0, 0
99681, -0.4107666, 0.25183105, 1.0994873, 72.509766, -113.70849, -17.150879, 53.0, 9.0, 19.0, 0
99702, -0.40942383, -0.1340332, 0.9580078, -55.114742, -114.92919, -14.282226, 53.0, 9.0, 19.0, 0
99724, -0.33203125, -0.013183594, 0.914917, -112.54882, -115.41747, -26.123045, 54.0, 9.0, 25.0, 0
99751, -0.39111328, 0.07043457, 0.9061279, -55.053707, -110.41259, -27.038572, 54.0, 9.0, 25.0, 0
99772, -0.46887207, 0.21264648, 0.79418945, 10.437011, -117.43163, -18.920898, 54.0, 9.0, 25.0, 0
99790, -0.50683594, 0.18347168, 0.78796387, -7.568359, -122.436516, -16.540527, 54.0, 9.0, 25.0, 0
99814, -0.5718994, 0.11193848, 0.7980957, -69.82422, -130.24902, -20.690916, 57.0, 10.0, 16.0, 0
99837, -0.6411133, 0.080200195, 0.8334961, -50.170895, -126.95312, -24.16992, 57.0, 10.0, 16.0, 0
99865, -0.7492676, 0.19299316, 0.8531494, 39.18457, -116.271965, -22.216795, 57.0, 10.0, 16.0, 0
99889, -0.78564453, 0.22131348, 0.7862549, 54.321285, -112.121574, -19.836426, 57.0, 10.0, 16.0, 0
99911, -0.8198242, 0.045898438, 0.7949219, 7.0190425, -110.717766, -15.8081045, 57.0, 10.0, 16.0, 0
99934, -0.7423096, 0.01953125, 0.7681885, -32.409668, -108.64257, -15.930175, 55.0, 10.0, 12.0, 0
99953, -0.7480469, 0.07348633, 0.73583984, -16.174316, -102.783195, -11.1083975, 55.0, 10.0, 12.0, 0
99977, -0.7844238, 0.20825195, 0.6989746, 7.3242183, -101.07421, -11.9018545, 55.0, 10.0, 12.0, 0
100025, -0.83203125, 0.1529541, 0.5944824, 12.268065, -99.91454, -11.96289, 55.0, 9.0, 12.0, 0
100064, -0.8654785, 0.15844727, 0.60424805, 23.559568, -91.00341, -23.92578, 55.0, 9.0, 12.0, 0
100086, -0.8955078, 0.19958496, 0.61206055, 14.038085, -89.84374, -26.367186, 55.0, 9.0, 12.0, 0
100108, -0.9144287, 0.16320801, 0.5626221, -4.4555664, -88.01269, -19.836426, 55.0, 9.0, 12.0, 0
100129, -0.9234619, 0.15515137, 0.52441406, -17.333984, -83.98437, -13.000487, 60.0, 9.0, 11.0, 0
100158, -0.9473877, 0.1907959, 0.48461914, -21.789549, -75.74463, -13.122558, 60.0, 9.0, 11.0, 0
100179, -0.9486084, 0.20507812, 0.47192383, -29.541014, -69.15283, -13.916015, 60.0, 9.0, 11.0, 0
100202, -0.9268799, 0.24389648, 0.44189453, -28.19824, -64.697266, -12.145995, 60.0, 9.0, 11.0, 0
100226, -0.9243164, 0.22009277, 0.41723633, -10.498046, -60.4248, -5.310058, 58.0, 10.0, 7.0, 0
100254, -0.9482422, 0.22692871, 0.36572266, -9.216309, -54.50439, -7.995605, 58.0, 10.0, 7.0, 0
100276, -0.94018555, 0.24243164, 0.33032227, -4.8217773, -51.208492, -10.742187, 58.0, 10.0, 7.0, 0
100300, -0.94091797, 0.2241211, 0.32250977, 0.97656244, -47.85156, -9.765625, 58.0, 10.0, 7.0, 0
100323, -0.9458008, 0.21350098, 0.28637695, -1.4648436, -45.349117, -9.094238, 58.0, 11.0, 8.0, 0
100348, -0.9544678, 0.23352051, 0.2607422, 0.18310545, -41.870113, -10.009766, 58.0, 11.0, 8.0, 0
100369, -0.94836426, 0.21826172, 0.23181152, 2.2583008, -38.33008, -8.544922, 58.0, 11.0, 8.0, 0
100388, -0.9637451, 0.21899414, 0.21264648, -1.0375977, -35.64453, -7.8124995, 58.0, 11.0, 8.0, 0
100411, -0.9802246, 0.2265625, 0.2084961, -2.5024414, -30.639647, -7.568359, 58.0, 11.0, 8.0, 0
100425, -0.979126, 0.2199707, 0.2286377, -3.967285, -23.92578, -6.347656, 59.0, 9.0, 7.0, 0
100449, -0.96069336, 0.20959473, 0.26843262, -8.178711, -17.578125, -2.380371, 59.0, 9.0, 7.0, 0
100470, -0.96191406, 0.24487305, 0.3092041, -5.004883, -7.995605, 0.48828122, 59.0, 9.0, 7.0, 0
100488, -0.9736328, 0.27197266, 0.33862305, 6.408691, 3.7231443, 1.4648436, 59.0, 9.0, 7.0, 0
100512, -0.96643066, 0.26696777, 0.33288574, 13.0615225, 12.329101, 3.7231443, 59.0, 9.0, 7.0, 0
100532, -0.9822998, 0.27172852, 0.34436035, 13.427733, 19.16504, 5.615234, 58.0, 6.0, 7.0, 0
100556, -1.0117188, 0.22766113, 0.41271973, 12.878417, 30.456541, 7.4462886, 58.0, 6.0, 7.0, 0
100574, -0.9938965, 0.25646973, 0.43737793, 23.010252, 50.23193, 10.31494, 58.0, 6.0, 7.0, 0
100592, -0.9914551, 0.25683594, 0.43249512, 27.9541, 55.78613, 11.657714, 58.0, 6.0, 7.0, 0
100615, -0.98083496, 0.22143555, 0.39379883, 34.729004, 64.63623, 14.160155, 59.0, 8.0, 10.0, 0
100635, -1.0091553, 0.2019043, 0.45861816, 36.499023, 83.92333, 15.075683, 59.0, 8.0, 10.0, 0
100660, -1.019043, 0.18676758, 0.47131348, 45.593258, 94.90966, 16.906738, 59.0, 8.0, 10.0, 0
100679, -0.99072266, 0.16503906, 0.4281006, 51.574703, 99.24316, 19.958496, 59.0, 8.0, 10.0, 0
100701, -0.9678955, 0.12854004, 0.44360352, 41.25976, 102.783195, 23.437498, 59.0, 8.0, 10.0, 0
100722, -0.9770508, 0.10974121, 0.52246094, 24.658201, 109.43603, 24.230955, 58.0, 11.0, 9.0, 0
100742, -0.98083496, 0.09106445, 0.56469727, 14.709472, 115.84472, 24.04785, 58.0, 11.0, 9.0, 0
100765, -0.9547119, 0.118774414, 0.5452881, 12.756347, 122.13134, 23.010252, 58.0, 11.0, 9.0, 0
100804, -0.88623047, 0.15600586, 0.61120605, 16.479492, 124.450676, 23.254393, 58.0, 11.0, 9.0, 0
100824, -0.8670654, 0.13208008, 0.6846924, 12.451171, 127.07519, 23.559568, 54.0, 11.0, 16.0, 0
100843, -0.86157227, 0.08679199, 0.7069092, -7.690429, 131.89697, 26.855467, 54.0, 11.0, 16.0, 0
100865, -0.84191895, 0.12768555, 0.7032471, -18.066406, 135.19287, 25.451658, 54.0, 11.0, 16.0, 0
100884, -0.7857666, 0.19616699, 0.7089844, -29.663084, 138.06152, 17.211914, 54.0, 11.0, 16.0, 0
100910, -0.7392578, 0.20678711, 0.7619629, -20.38574, 134.64355, 16.418457, 54.0, 11.0, 16.0, 0
100932, -0.739624, 0.13354492, 0.8210449, -15.686034, 137.39014, 19.042969, 58.0, 8.0, 17.0, 0
100975, -0.6324463, 0.15283203, 0.85827637, -12.451171, 143.31055, 10.253905, 58.0, 8.0, 17.0, 0
100956, -0.6772461, 0.13171387, 0.82751465, -16.723633, 140.07568, 17.150879, 58.0, 8.0, 17.0, 0
100993, -0.616333, 0.15515137, 0.8703613, -9.765625, 144.16504, 8.239746, 58.0, 8.0, 17.0, 0
101016, -0.541626, 0.14685059, 0.8824463, -0.122070305, 143.24951, 4.760742, 56.0, 9.0, 21.0, 0
101039, -0.48937988, 0.10681152, 0.9301758, 4.211426, 142.82227, 6.896972, 56.0, 9.0, 21.0, 0
101060, -0.44482422, 0.11035156, 0.913208, 6.7138667, 142.57812, 7.690429, 56.0, 9.0, 21.0, 0
101078, -0.3753662, 0.10095215, 0.88464355, 2.2583008, 140.625, 7.8124995, 56.0, 9.0, 21.0, 0
101096, -0.34448242, 0.09069824, 0.9350586, -5.4931636, 140.93018, 8.422852, 56.0, 9.0, 21.0, 0
101116, -0.321167, 0.14416504, 0.96606445, -3.601074, 141.54053, 7.8124995, 58.0, 8.0, 21.0, 0
101136, -0.23706055, 0.14697266, 0.9293213, 21.301268, 138.3667, 6.896972, 58.0, 8.0, 21.0, 0
101158, -0.17907715, 0.08496094, 0.92749023, 20.751951, 136.16943, 9.94873, 58.0, 8.0, 21.0, 0
101176, -0.13220215, 0.052856445, 0.9310303, 6.7138667, 135.98633, 11.230468, 58.0, 8.0, 21.0, 0
101198, -0.07885742, 0.10595703, 0.9210205, -4.1503906, 134.52148, 9.338379, 58.0, 8.0, 21.0, 0
101220, -0.037475586, 0.103637695, 0.9119873, -3.2958982, 132.14111, 8.056641, 54.0, 5.0, 28.0, 0
101244, 0.01574707, 0.11669922, 0.9061279, 4.8828125, 129.63867, 8.117676, 54.0, 5.0, 28.0, 0
101263, 0.05456543, 0.12573242, 0.90148926, 12.023925, 126.342766, 9.70459, 54.0, 5.0, 28.0, 0
101281, 0.10803223, 0.088256836, 0.883667, 9.399414, 120.91064, 12.20703, 54.0, 5.0, 28.0, 0
101301, 0.14587402, 0.06738281, 0.89331055, 3.2958982, 117.73681, 12.939452, 54.0, 5.0, 28.0, 0
101318, 0.16320801, 0.10876465, 0.89172363, 11.718749, 117.67577, 11.718749, 51.0, 1.0, 33.0, 0
101342, 0.21313477, 0.11682129, 0.85632324, 21.545408, 113.64745, 12.145995, 51.0, 1.0, 33.0, 0
101379, 0.28601074, 0.08654785, 0.8442383, 12.634276, 107.91015, 14.526366, 51.0, 1.0, 33.0, 0
101401, 0.32995605, 0.07421875, 0.8699951, 0.97656244, 106.14013, 14.648437, 51.0, 1.0, 33.0, 0
101419, 0.3605957, 0.06591797, 0.8309326, -6.408691, 105.95702, 14.404296, 54.0, 1.0, 28.0, 0
101443, 0.43225098, 0.13085938, 0.7687988, -10.253905, 101.19628, 10.437011, 54.0, 1.0, 28.0, 0
101465, 0.47399902, 0.08105469, 0.7766113, -12.145995, 97.71728, 12.08496, 54.0, 1.0, 28.0, 0
101483, 0.4802246, 0.076538086, 0.7883301, -12.329101, 97.90038, 12.268065, 54.0, 1.0, 28.0, 0
101503, 0.50390625, 0.10461426, 0.7647705, -16.479492, 97.96142, 8.117676, 54.0, 1.0, 28.0, 0
101520, 0.5604248, 0.1217041, 0.69262695, -25.93994, 92.8955, 6.408691, 52.0, -5.0, 31.0, 0
101543, 0.57141113, 0.15039062, 0.6750488, -26.550291, 91.186516, 4.4555664, 52.0, -5.0, 31.0, 0
101560, 0.6072998, 0.18969727, 0.651001, -11.779784, 88.684074, 0.18310545, 52.0, -5.0, 31.0, 0
101579, 0.6549072, 0.12121582, 0.65722656, -1.7700194, 85.144035, 2.0141602, 52.0, -5.0, 31.0, 0
101601, 0.6689453, 0.10205078, 0.6405029, -8.483887, 82.45849, 2.0141602, 52.0, -5.0, 31.0, 0
101619, 0.6956787, 0.17321777, 0.6275635, -11.9018545, 79.40674, 0.18310545, 52.0, -6.0, 35.0, 0
101644, 0.7081299, 0.2121582, 0.6164551, -1.5258788, 76.84326, -2.1972656, 52.0, -6.0, 35.0, 0
101665, 0.75549316, 0.1184082, 0.5924072, 1.7089843, 73.18115, -1.4038085, 52.0, -6.0, 35.0, 0
101688, 0.7735596, 0.14807129, 0.583374, 5.615234, 70.86182, -0.67138666, 52.0, -6.0, 35.0, 0
101712, 0.7784424, 0.18823242, 0.55126953, 13.549804, 69.51904, -2.319336, 52.0, -6.0, 35.0, 0
101733, 0.79248047, 0.15759277, 0.5406494, 13.732909, 67.07764, -1.6479491, 52.0, -12.0, 29.0, 0
101753, 0.8096924, 0.12023926, 0.5272217, 12.20703, 64.27002, -1.4038085, 52.0, -12.0, 29.0, 0
101781, 0.82250977, 0.13110352, 0.48388672, 16.540527, 61.279293, -0.5493164, 52.0, -12.0, 29.0, 0
101806, 0.82214355, 0.15600586, 0.47729492, 15.86914, 58.898922, -2.6855466, 52.0, -12.0, 29.0, 0
101827, 0.84228516, 0.13354492, 0.48449707, 15.747069, 59.57031, -6.103515, 51.0, -13.0, 34.0, 0
101850, 0.861084, 0.14648438, 0.47827148, 20.690916, 57.983395, -7.8124995, 51.0, -13.0, 34.0, 0
101872, 0.86206055, 0.13671875, 0.45214844, 26.977537, 56.88476, -9.155273, 51.0, -13.0, 34.0, 0
101892, 0.8741455, 0.13098145, 0.40270996, 29.357908, 54.443356, -11.291503, 51.0, -13.0, 34.0, 0
101914, 0.88952637, 0.107910156, 0.35961914, 34.606934, 50.170895, -12.20703, 48.0, -14.0, 32.0, 0
101937, 0.8997803, 0.05041504, 0.30517578, 32.77588, 43.15185, -7.690429, 48.0, -14.0, 32.0, 0
101960, 0.9255371, 0.08117676, 0.23034668, 21.606443, 34.057617, -5.615234, 48.0, -14.0, 32.0, 0
101997, 0.92858887, 0.025756836, 0.14001465, 2.7465818, 7.568359, -0.67138666, 48.0, -14.0, 32.0, 0
101978, 0.92871094, 0.06530762, 0.15856934, 10.498046, 20.324705, -3.5400388, 48.0, -14.0, 32.0, 0
102019, 0.9272461, -0.0012207031, 0.123291016, 0.24414061, -4.5776367, 2.807617, 51.0, -18.0, 32.0, 0
102047, 0.9082031, -0.03479004, 0.17248535, -9.58252, -26.916502, 8.544922, 51.0, -18.0, 32.0, 0
102068, 0.8901367, 0.0057373047, 0.22521973, -13.427733, -42.114254, 12.023925, 51.0, -18.0, 32.0, 0
102085, 0.8708496, 0.05810547, 0.2770996, -8.7890625, -53.161617, 13.488769, 51.0, -18.0, 32.0, 0
102107, 0.8466797, 0.107055664, 0.31152344, -3.4790037, -55.847164, 13.0615225, 51.0, -18.0, 32.0, 0
102125, 0.8535156, 0.12097168, 0.28112793, 3.6621091, -64.086914, 7.3242183, 48.0, -11.0, 32.0, 0
102155, 0.84436035, 0.09326172, 0.32958984, -3.6621091, -73.73047, 7.263183, 48.0, -11.0, 32.0, 0
102176, 0.8009033, 0.118896484, 0.43847656, -4.333496, -77.941895, 8.605957, 48.0, -11.0, 32.0, 0
102197, 0.8066406, 0.14025879, 0.46557617, -6.896972, -81.72607, 10.131835, 48.0, -11.0, 32.0, 0
102219, 0.803833, 0.16442871, 0.41125488, -14.038085, -90.576164, 10.620116, 53.0, -6.0, 36.0, 0
102242, 0.7762451, 0.13354492, 0.4342041, -24.353025, -97.71728, 9.338379, 53.0, -6.0, 36.0, 0
102307, 0.71240234, 0.25134277, 0.5124512, 16.906738, -108.27636, 5.0659175, 53.0, -6.0, 36.0, 0
102350, 0.5921631, 0.036499023, 0.69921875, -11.596679, -117.30956, 4.3945312, 49.0, -6.0, 32.0, 0
102325, 0.6401367, 0.09436035, 0.5831299, 13.183593, -119.44579, 6.04248, 49.0, -6.0, 32.0, 0
102368, 0.5858154, 0.12768555, 0.671875, -17.63916, -119.38476, -1.586914, 49.0, -6.0, 32.0, 0
102394, 0.5583496, 0.23779297, 0.63464355, 2.9907224, -123.840324, -4.333496, 49.0, -6.0, 32.0, 0
102417, 0.4473877, 0.07434082, 0.70654297, 17.456055, -132.44629, 3.1127927, 51.0, 0.0, 33.0, 0
102439, 0.37023926, -0.048461914, 0.88513184, -13.366698, -131.89697, 9.70459, 51.0, 0.0, 33.0, 0
102458, 0.30334473, 0.1607666, 0.9934082, -13.366698, -121.09374, -1.0986328, 51.0, 0.0, 33.0, 0
102480, 0.3034668, 0.32666016, 0.82629395, 24.53613, -123.35204, -10.0708, 51.0, 0.0, 33.0, 0
102500, 0.3067627, 0.22241211, 0.72924805, 32.77588, -136.65771, -4.638672, 51.0, 0.0, 33.0, 0
102520, 0.2388916, -0.103881836, 0.93981934, -7.568359, -133.36182, 7.629394, 52.0, 6.0, 30.0, 0
102545, 0.17382812, -0.03491211, 1.0640869, -48.034664, -124.75585, 5.004883, 52.0, 6.0, 30.0, 0
102566, 0.14794922, 0.3918457, 0.9425049, 35.52246, -121.8872, -11.413573, 52.0, 6.0, 30.0, 0
102593, 0.15393066, 0.19506836, 0.71777344, 60.363766, -137.02393, 3.7231443, 52.0, 6.0, 30.0, 0
102613, 0.079956055, -0.1505127, 0.93847656, 6.9580073, -132.38525, 11.413573, 52.0, 6.0, 30.0, 0
102631, -0.021118164, -0.07324219, 1.1204834, -43.02978, -121.704094, 3.6621091, 53.0, 9.0, 26.0, 0
102655, -0.060913086, 0.2446289, 1.1345215, -23.803709, -121.21581, -7.995605, 53.0, 9.0, 26.0, 0
102682, -0.107299805, 0.2109375, 0.9013672, 43.090816, -118.89648, 4.0283203, 53.0, 9.0, 26.0, 0
102703, -0.076049805, 0.025756836, 0.8952637, 14.343261, -117.30956, 2.0751953, 53.0, 9.0, 26.0, 0
102721, -0.1237793, -0.033325195, 1.0612793, -21.728514, -111.32812, -1.5258788, 55.0, 11.0, 21.0, 0
102745, -0.24133301, 0.080566406, 1.1320801, -25.93994, -106.62841, -5.676269, 55.0, 11.0, 21.0, 0
102763, -0.24707031, 0.22644043, 1.0366211, -6.7138667, -108.76464, -8.544922, 55.0, 11.0, 21.0, 0
102781, -0.2397461, 0.19470215, 0.96984863, 22.338865, -107.60497, -1.159668, 55.0, 11.0, 21.0, 0
102803, -0.24743652, 0.17834473, 0.9140625, 59.69238, -108.5205, -2.9296873, 55.0, 11.0, 21.0, 0
102829, -0.26062012, 0.088378906, 0.9121094, 75.01221, -114.92919, -11.1083975, 55.0, 9.0, 21.0, 0
102851, -0.35351562, -0.048095703, 1.0187988, 46.630856, -111.51122, -11.9018545, 55.0, 9.0, 21.0, 0
102873, -0.47070312, -0.0028076172, 1.0136719, 30.395506, -101.07421, -13.000487, 55.0, 9.0, 21.0, 0
102896, -0.4519043, 0.13317871, 0.9063721, 29.479979, -99.4873, -18.981934, 55.0, 9.0, 21.0, 0
102911, -0.4440918, 0.034179688, 0.86120605, 11.413573, -102.35595, -15.258788, 55.0, 9.0, 21.0, 0
102928, -0.5004883, 0.0034179688, 0.8529053, -16.601562, -103.08837, -15.502929, 55.0, 14.0, 18.0, 0
102976, -0.5644531, 0.07531738, 0.89416504, -23.376463, -104.187004, -21.301268, 55.0, 14.0, 18.0, 0
102952, -0.5142822, 0.06286621, 0.83935547, -27.587889, -104.431145, -20.690916, 55.0, 14.0, 18.0, 0
102998, -0.66552734, 0.08935547, 0.8424072, -0.9155273, -98.20556, -16.723633, 55.0, 14.0, 18.0, 0
103020, -0.6755371, 0.099609375, 0.75354004, -4.5166016, -95.27587, -16.174316, 58.0, 10.0, 12.0, 0
103044, -0.69628906, 0.07849121, 0.75720215, -21.545408, -94.17724, -17.8833, 58.0, 10.0, 12.0, 0
103062, -0.7364502, 0.07543945, 0.7844238, -30.151365, -90.08788, -17.39502, 58.0, 10.0, 12.0, 0
103085, -0.77697754, 0.09741211, 0.78308105, -27.221678, -84.22851, -16.296387, 58.0, 10.0, 12.0, 0
103103, -0.76208496, 0.13134766, 0.70703125, -17.63916, -82.45849, -12.817382, 58.0, 10.0, 12.0, 0
103131, -0.758667, 0.15527344, 0.67785645, -16.723633, -82.58056, -10.986327, 54.0, 14.0, 11.0, 0
103159, -0.75598145, 0.13439941, 0.64990234, -18.615723, -81.54296, -11.169433, 54.0, 14.0, 11.0, 0
103184, -0.7816162, 0.14135742, 0.6520996, -24.597166, -79.52881, -13.610839, 54.0, 14.0, 11.0, 0
103205, -0.82373047, 0.16638184, 0.6600342, -19.65332, -77.45361, -15.0146475, 54.0, 14.0, 11.0, 0
103223, -0.84936523, 0.1776123, 0.62646484, -4.333496, -73.913574, -13.305663, 55.0, 12.0, 10.0, 0
103247, -0.8421631, 0.1875, 0.5698242, 1.2817382, -70.80078, -13.000487, 55.0, 12.0, 10.0, 0
103267, -0.84594727, 0.1998291, 0.5654297, -7.3852534, -68.96973, -14.343261, 55.0, 12.0, 10.0, 0
103288, -0.8703613, 0.12756348, 0.5878906, -11.352538, -67.74902, -13.366698, 55.0, 12.0, 10.0, 0
103308, -0.9017334, 0.15063477, 0.5876465, -8.178711, -58.04443, -11.291503, 55.0, 12.0, 10.0, 0
103329, -0.876709, 0.21801758, 0.5213623, -5.310058, -53.89404, -12.756347, 56.0, 9.0, 10.0, 0
103394, -0.8812256, 0.19360352, 0.44677734, -3.601074, -52.917477, -9.094238, 56.0, 9.0, 10.0, 0
103415, -0.87976074, 0.19055176, 0.39172363, -0.122070305, -54.74853, -9.460449, 56.0, 9.0, 10.0, 0
103434, -0.8937988, 0.21435547, 0.3786621, -5.249023, -55.236813, -12.695312, 56.0, 9.0, 9.0, 0
103457, -0.9182129, 0.2232666, 0.39660645, -3.9062498, -53.710934, -14.526366, 56.0, 9.0, 9.0, 0
103478, -0.9359131, 0.17419434, 0.3876953, 8.239746, -50.47607, -11.779784, 56.0, 9.0, 9.0, 0
103495, -0.9312744, 0.18664551, 0.36669922, 12.390136, -47.119137, -8.605957, 56.0, 9.0, 9.0, 0
103517, -0.92285156, 0.23632812, 0.31835938, 6.103515, -43.762203, -8.850098, 56.0, 12.0, 5.0, 0
103539, -0.928833, 0.23217773, 0.3256836, -5.1269526, -37.109375, -8.178711, 56.0, 12.0, 5.0, 0
103560, -0.9628906, 0.23449707, 0.34094238, -4.1503906, -32.287598, -7.629394, 56.0, 12.0, 5.0, 0
103583, -0.97558594, 0.25073242, 0.3001709, -0.48828122, -31.127928, -6.9580073, 56.0, 12.0, 5.0, 0
103609, -0.9250488, 0.28186035, 0.2738037, 0.67138666, -32.89795, -5.1269526, 56.0, 12.0, 5.0, 0
103629, -0.9251709, 0.26037598, 0.29797363, 1.3427733, -32.89795, -4.699707, 62.0, 12.0, 0.0, 0
103648, -0.9190674, 0.22558594, 0.305542, 7.8735347, -30.883787, -4.9438477, 62.0, 12.0, 0.0, 0
103671, -0.9243164, 0.2286377, 0.2821045, 7.5073237, -30.029295, -5.5541987, 62.0, 12.0, 0.0, 0
103692, -0.9641113, 0.2154541, 0.29638672, 3.7231443, -22.705076, -7.0800776, 62.0, 12.0, 0.0, 0
103714, -0.9744873, 0.15124512, 0.31445312, 11.96289, -9.521484, 0.67138666, 62.0, 12.0, 0.0, 0
103737, -0.93518066, 0.27941895, 0.31750488, 32.287598, 1.0986328, 6.9580073, 59.0, 9.0, 7.0, 0
103759, -0.916626, 0.2130127, 0.2265625, 29.96826, 4.638672, 8.300781, 59.0, 9.0, 7.0, 0
103777, -0.90063477, 0.15405273, 0.23059082, 11.657714, 7.7514644, 7.263183, 59.0, 9.0, 7.0, 0
103800, -0.9309082, 0.28393555, 0.4140625, -15.319823, 12.939452, 1.8920897, 59.0, 9.0, 7.0, 0
103817, -0.9781494, 0.30444336, 0.477417, 26.672361, 17.63916, -2.6245115, 59.0, 9.0, 7.0, 0
103840, -0.9904785, 0.23010254, 0.36340332, 57.92236, 22.338865, 3.4790037, 60.0, 9.0, 10.0, 0
103862, -0.9309082, 0.23022461, 0.22338867, 39.855957, 26.000975, 7.3852534, 60.0, 9.0, 10.0, 0
103880, -0.91467285, 0.21130371, 0.31481934, 6.04248, 30.2124, 4.5166016, 60.0, 9.0, 10.0, 0
103907, -0.9628906, 0.19848633, 0.46813965, 1.0375977, 39.611816, 2.2583008, 60.0, 9.0, 10.0, 0
103929, -0.9920654, 0.22338867, 0.43603516, 35.339355, 55.66406, 7.8735347, 59.0, 7.0, 12.0, 0
103953, -1.0113525, 0.19042969, 0.4095459, 53.955074, 69.45801, 13.97705, 59.0, 7.0, 12.0, 0
103975, -0.9844971, 0.14172363, 0.41186523, 53.710934, 79.65088, 17.27295, 59.0, 7.0, 12.0, 0
104020, -0.97961426, 0.14794922, 0.56689453, 21.850584, 99.54833, 16.967773, 58.0, 10.0, 12.0, 0
104043, -0.9683838, 0.14660645, 0.5526123, 8.422852, 109.43603, 20.996092, 58.0, 10.0, 12.0, 0
104064, -0.923584, 0.19677734, 0.56066895, 7.8735347, 111.51122, 17.39502, 58.0, 10.0, 12.0, 0
104082, -0.88220215, 0.1694336, 0.6229248, 9.094238, 112.121574, 15.930175, 58.0, 10.0, 12.0, 0
104104, -0.8720703, 0.12890625, 0.68444824, 2.1362305, 114.31884, 17.8833, 58.0, 10.0, 12.0, 0
104122, -0.8568115, 0.11975098, 0.6890869, -12.695312, 116.57714, 18.920898, 55.0, 8.0, 12.0, 0
104150, -0.8175049, 0.12487793, 0.6636963, -32.348633, 121.52099, 19.16504, 55.0, 8.0, 12.0, 0
104168, -0.80358887, 0.14855957, 0.6641846, -37.841797, 122.86376, 14.770507, 55.0, 8.0, 12.0, 0
104190, -0.78430176, 0.16894531, 0.7434082, -17.944336, 125.610344, 11.169433, 55.0, 8.0, 12.0, 0
104212, -0.76831055, 0.14343262, 0.77905273, -8.7890625, 125.54931, 10.925292, 55.0, 8.0, 12.0, 0
104230, -0.770874, 0.0925293, 0.8100586, -1.4648436, 134.27734, 14.343261, 54.0, 10.0, 15.0, 0
104254, -0.72351074, 0.1262207, 0.80944824, -9.277344, 137.146, 14.038085, 54.0, 10.0, 15.0, 0
104274, -0.6641846, 0.123535156, 0.83325195, -15.686034, 137.75635, 13.793944, 54.0, 10.0, 15.0, 0
104296, -0.63220215, 0.11999512, 0.9025879, -12.145995, 141.23535, 14.526366, 54.0, 10.0, 15.0, 0
104355, -0.48840332, 0.18164062, 0.9251709, -9.399414, 146.3623, 10.253905, 53.0, 8.0, 22.0, 0
104382, -0.40808105, 0.14916992, 0.9473877, 2.6245115, 149.4751, 10.742187, 53.0, 8.0, 22.0, 0
104406, -0.34643555, 0.15368652, 0.95043945, 5.004883, 149.59717, 10.009766, 53.0, 8.0, 22.0, 0
104428, -0.30688477, 0.16064453, 0.9764404, 0.3662109, 151.61133, 9.094238, 56.0, 11.0, 17.0, 0
104452, -0.23791504, 0.17419434, 0.9609375, 5.3710933, 152.22168, 7.8124995, 56.0, 11.0, 17.0, 0
104472, -0.14428711, 0.1303711, 0.89660645, 15.624999, 147.03369, 9.643555, 56.0, 11.0, 17.0, 0
104493, -0.09460449, 0.13549805, 0.9055176, 10.620116, 144.40918, 11.047362, 56.0, 11.0, 17.0, 0
104511, -0.061523438, 0.12194824, 0.93603516, 7.3242183, 143.00537, 12.451171, 56.0, 11.0, 17.0, 0
104537, -0.03466797, 0.12219238, 0.9250488, 6.5307612, 141.90674, 12.573241, 53.0, 6.0, 30.0, 0
104561, 0.023071289, 0.11206055, 0.88378906, 2.319336, 135.37598, 16.357422, 53.0, 6.0, 30.0, 0
104582, 0.05847168, 0.16479492, 0.8856201, 12.817382, 132.20215, 18.920898, 53.0, 6.0, 30.0, 0
104600, 0.1381836, 0.1583252, 0.82128906, 17.63916, 124.51171, 19.53125, 53.0, 6.0, 30.0, 0
104622, 0.18811035, 0.08959961, 0.8041992, 13.488769, 120.91064, 20.202635, 57.0, 3.0, 27.0, 0
104646, 0.20739746, 0.06347656, 0.8564453, -6.896972, 117.797844, 19.714355, 57.0, 3.0, 27.0, 0
104667, 0.25195312, 0.1430664, 0.84973145, 0.122070305, 116.638176, 15.747069, 57.0, 3.0, 27.0, 0
104686, 0.2972412, 0.1508789, 0.8218994, 8.239746, 111.63329, 16.662598, 57.0, 3.0, 27.0, 0
104708, 0.35327148, 0.16333008, 0.7449951, 4.333496, 100.280754, 17.211914, 57.0, 3.0, 27.0, 0
104727, 0.40148926, 0.1743164, 0.75390625, 0.7324218, 99.91454, 13.8549795, 51.0, 2.0, 31.0, 0
104751, 0.47680664, 0.1550293, 0.7783203, -3.234863, 96.67968, 7.5073237, 51.0, 2.0, 31.0, 0
104773, 0.51171875, 0.18225098, 0.7607422, 7.0800776, 94.360344, 4.699707, 51.0, 2.0, 31.0, 0
104791, 0.55566406, 0.19873047, 0.7109375, 17.578125, 89.050285, 4.333496, 51.0, 2.0, 31.0, 0
104818, 0.5744629, 0.18359375, 0.70861816, 16.906738, 84.83886, 4.0283203, 51.0, 0.0, 33.0, 0
104843, 0.60791016, 0.14709473, 0.7023926, 2.319336, 81.604, 0.48828122, 51.0, 0.0, 33.0, 0
104865, 0.6270752, 0.14282227, 0.680542, 3.4179685, 80.26123, -0.30517578, 51.0, 0.0, 33.0, 0
104882, 0.657959, 0.14331055, 0.645874, 13.916015, 77.75879, -0.9155273, 51.0, 0.0, 33.0, 0
104905, 0.66760254, 0.10583496, 0.666626, 15.930175, 73.73047, 1.4648436, 51.0, 0.0, 33.0, 0
104929, 0.6652832, 0.09899902, 0.6722412, 12.451171, 71.96045, 2.6855466, 49.0, -4.0, 35.0, 0
104950, 0.69140625, 0.103271484, 0.61608887, 0.97656244, 69.03076, 0.42724606, 49.0, -4.0, 35.0, 0
104970, 0.73083496, 0.1105957, 0.57470703, -4.9438477, 63.35449, 1.2207031, 49.0, -4.0, 35.0, 0
104994, 0.7380371, 0.099487305, 0.5727539, -8.300781, 60.363766, 0.61035156, 49.0, -4.0, 35.0, 0
105020, 0.74487305, 0.12121582, 0.5675049, -8.422852, 58.837887, -0.061035153, 50.0, -6.0, 32.0, 0
105042, 0.7611084, 0.13269043, 0.5740967, -9.82666, 55.969234, 0.30517578, 50.0, -6.0, 32.0, 0
105056, 0.7747803, 0.140625, 0.5574951, -8.422852, 53.588863, -0.61035156, 50.0, -6.0, 32.0, 0
105079, 0.8087158, 0.15612793, 0.51794434, 1.4648436, 49.86572, -1.5258788, 50.0, -6.0, 32.0, 0
105097, 0.8022461, 0.13464355, 0.522583, 5.8593745, 46.874996, -1.586914, 50.0, -6.0, 32.0, 0
105123, 0.8133545, 0.13146973, 0.5147705, 3.234863, 45.654293, -1.5258788, 51.0, -12.0, 27.0, 0
105142, 0.8251953, 0.12890625, 0.49609375, -1.8310546, 43.090816, -2.0141602, 51.0, -12.0, 27.0, 0
105165, 0.84729004, 0.13659668, 0.46740723, 6.469726, 39.18457, -0.61035156, 51.0, -12.0, 27.0, 0
105182, 0.8642578, 0.12573242, 0.45617676, 16.052246, 36.254883, 0.7324218, 51.0, -12.0, 27.0, 0
105224, 0.85217285, 0.110961914, 0.44836426, 11.047362, 32.104492, 2.319336, 51.0, -10.0, 31.0, 0
105200, 0.848999, 0.114990234, 0.45959473, 15.258788, 33.691406, 1.586914, 51.0, -12.0, 27.0, 0
105246, 0.8588867, 0.11755371, 0.45300293, 0.24414061, 27.465818, 3.234863, 51.0, -10.0, 31.0, 0
105268, 0.87390137, 0.13012695, 0.4506836, 1.0986328, 26.550291, 1.7089843, 51.0, -10.0, 31.0, 0
105289, 0.8696289, 0.14404297, 0.43579102, 2.807617, 24.16992, 0.3662109, 51.0, -10.0, 31.0, 0
105308, 0.8701172, 0.13830566, 0.43566895, 3.9062498, 22.15576, -1.159668, 51.0, -10.0, 31.0, 0
105326, 0.8798828, 0.12231445, 0.44836426, 4.8828125, 22.15576, -2.319336, 51.0, -12.0, 32.0, 0
105350, 0.89208984, 0.13220215, 0.42980957, 6.408691, 21.301268, -2.2583008, 51.0, -12.0, 32.0, 0
105375, 0.8964844, 0.1307373, 0.39819336, 0.3662109, 19.042969, -2.0141602, 51.0, -12.0, 32.0, 0
105398, 0.9046631, 0.11730957, 0.39941406, -5.737304, 16.479492, -2.0141602, 51.0, -12.0, 32.0, 0
105420, 0.9075928, 0.099487305, 0.41918945, -4.9438477, 17.76123, -3.4179685, 51.0, -12.0, 32.0, 0
105438, 0.9075928, 0.14648438, 0.40527344, 0.61035156, 16.662598, -3.0517576, 50.0, -12.0, 38.0, 0
105466, 0.9046631, 0.14331055, 0.3812256, 3.7231443, 15.319823, -4.3945312, 50.0, -12.0, 38.0, 0
105487, 0.9123535, 0.12780762, 0.31469727, 6.469726, 10.009766, -2.4414062, 50.0, -12.0, 38.0, 0
105510, 0.92700195, 0.076538086, 0.28149414, 5.615234, 5.1269526, -0.48828122, 50.0, -12.0, 38.0, 0
105532, 0.9124756, 0.088012695, 0.26660156, -2.380371, -1.9531249, 0.61035156, 51.0, -12.0, 30.0, 0
105556, 0.9226074, 0.06958008, 0.22375488, -5.8593745, -13.000487, 4.5166016, 51.0, -12.0, 30.0, 0
105578, 0.9116211, 0.055541992, 0.25109863, -17.944336, -28.137205, 8.117676, 51.0, -12.0, 30.0, 0
105603, 0.8878174, 0.08129883, 0.27954102, -16.540527, -36.743164, 9.82666, 51.0, -12.0, 30.0, 0
105625, 0.88464355, 0.11193848, 0.27062988, -7.995605, -45.410152, 10.681151, 52.0, -13.0, 33.0, 0
105649, 0.8729248, 0.13000488, 0.2722168, -2.1972656, -54.443356, 10.437011, 52.0, -13.0, 33.0, 0
105667, 0.83166504, 0.106933594, 0.35083008, -6.774902, -57.983395, 9.094238, 52.0, -13.0, 33.0, 0
105685, 0.833374, 0.12426758, 0.40124512, -16.235352, -61.58447, 8.117676, 52.0, -13.0, 33.0, 0
105708, 0.8444824, 0.17492676, 0.39172363, -13.671874, -67.87109, 9.155273, 52.0, -13.0, 33.0, 0
105728, 0.8535156, 0.19958496, 0.33789062, -1.4648436, -76.96533, 9.399414, 51.0, -10.0, 32.0, 0
105754, 0.7706299, 0.1430664, 0.49072266, -4.333496, -81.604, 7.629394, 51.0, -10.0, 32.0, 0
105776, 0.74316406, 0.14416504, 0.5925293, -12.573241, -80.01709, 6.1645503, 51.0, -10.0, 32.0, 0
105796, 0.77160645, 0.25878906, 0.5385742, -7.202148, -86.36474, 3.4790037, 51.0, -10.0, 32.0, 0
105819, 0.75927734, 0.27905273, 0.4494629, 10.437011, -97.71728, 5.4321284, 51.0, -6.0, 32.0, 0
105842, 0.6517334, 0.06762695, 0.5946045, -12.451171, -100.03661, 7.4462886, 51.0, -6.0, 32.0, 0
105865, 0.63635254, 0.11230469, 0.670166, -25.451658, -97.90038, 6.774902, 51.0, -6.0, 32.0, 0
105885, 0.6455078, 0.27978516, 0.6542969, -6.04248, -100.708, -1.0986328, 51.0, -6.0, 32.0, 0
105906, 0.63708496, 0.3272705, 0.5040283, 36.254883, -112.30468, -0.42724606, 51.0, -6.0, 32.0, 0
105929, 0.5917969, 0.14990234, 0.5313721, 29.296873, -125.42724, 3.6621091, 52.0, 0.0, 30.0, 0
105952, 0.44152832, 0.0026855469, 0.82543945, -31.555174, -120.97167, 7.4462886, 52.0, 0.0, 30.0, 0
105974, 0.43371582, 0.24255371, 0.89782715, -24.841307, -117.797844, 4.4555664, 52.0, 0.0, 30.0, 0
105994, 0.45581055, 0.40722656, 0.68566895, 67.81006, -127.38036, -6.9580073, 52.0, 0.0, 30.0, 0
106020, 0.38842773, 0.09448242, 0.74572754, 53.405758, -138.1836, 3.0517576, 52.0, 0.0, 30.0, 0
106038, 0.2388916, -0.21447754, 1.0498047, -25.024412, -122.86376, 13.000487, 52.0, 3.0, 26.0, 0
106059, 0.20483398, 0.09106445, 1.123291, -54.443356, -107.4829, 1.3427733, 52.0, 3.0, 26.0, 0
106078, 0.26013184, 0.38842773, 0.92089844, -16.052246, -111.57226, -12.634276, 52.0, 3.0, 26.0, 0
106096, 0.2545166, 0.2220459, 0.72094727, -1.7700194, -123.90136, 3.173828, 52.0, 3.0, 26.0, 0
106121, 0.24072266, 0.11743164, 0.83032227, -19.226074, -121.704094, 8.972168, 52.0, 3.0, 26.0, 0
106139, 0.12609863, 0.03540039, 1.0540771, -15.136718, -111.45019, 10.803222, 54.0, 7.0, 23.0, 0
106162, 0.07299805, 0.29541016, 1.0321045, 36.315918, -111.75536, 5.0659175, 54.0, 7.0, 23.0, 0
106186, 0.05908203, 0.20422363, 0.8588867, 20.874022, -118.041985, 9.094238, 54.0, 7.0, 23.0, 0
106208, 0.07873535, 0.1394043, 0.8189697, -21.91162, -122.436516, 9.765625, 54.0, 7.0, 23.0, 0
106226, -0.032226562, 0.13891602, 1.0194092, -10.559081, -114.92919, 3.7841794, 50.0, 10.0, 22.0, 0
106250, -0.15539551, 0.103515625, 1.1607666, 31.005857, -107.17773, 5.1269526, 50.0, 10.0, 22.0, 0
106268, -0.13830566, 0.28173828, 0.94555664, 46.630856, -112.121574, -0.9155273, 50.0, 10.0, 22.0, 0
106294, -0.13366699, 0.095703125, 0.9219971, 23.559568, -113.34228, 1.4648436, 50.0, 10.0, 22.0, 0
106312, -0.20983887, 0.12231445, 1.0039062, -22.888182, -108.64257, 1.5258788, 50.0, 10.0, 22.0, 0
106332, -0.26342773, 0.19116211, 1.0498047, 8.911133, -100.95214, -9.94873, 53.0, 9.0, 19.0, 0
106356, -0.27172852, 0.22509766, 0.99572754, 35.705566, -100.524895, -5.7983394, 53.0, 9.0, 19.0, 0
106375, -0.26757812, 0.15002441, 0.8691406, 13.0615225, -105.10253, 1.4038085, 53.0, 9.0, 19.0, 0
106397, -0.29187012, 0.10644531, 0.9289551, -32.165527, -104.49218, -0.122070305, 53.0, 9.0, 19.0, 0
106420, -0.3890381, 0.11743164, 1.0429688, -33.14209, -96.618645, -5.249023, 51.0, 12.0, 20.0, 0
106443, -0.45617676, 0.20800781, 1.0089111, 15.075683, -88.98925, -6.347656, 51.0, 12.0, 20.0, 0
106466, -0.43579102, 0.21496582, 0.91186523, 19.89746, -89.72167, -1.7700194, 51.0, 12.0, 20.0, 0
106484, -0.44226074, 0.15795898, 0.90441895, -3.0517576, -89.23339, -2.868652, 51.0, 12.0, 20.0, 0
106502, -0.46826172, 0.13903809, 0.9465332, -8.666992, -84.59472, -7.8124995, 51.0, 12.0, 20.0, 0
106527, -0.49572754, 0.11816406, 0.9465332, 5.1269526, -80.5664, -8.972168, 56.0, 11.0, 14.0, 0
106551, -0.4970703, 0.1640625, 0.8907471, 14.038085, -80.68847, -7.0800776, 56.0, 11.0, 14.0, 0
106571, -0.49157715, 0.19946289, 0.81188965, 6.2255855, -83.98437, -5.249023, 56.0, 11.0, 14.0, 0
106589, -0.50061035, 0.17297363, 0.7861328, -12.390136, -88.562004, -5.4931636, 56.0, 11.0, 14.0, 0
106613, -0.59765625, 0.13623047, 0.8321533, -7.141113, -86.48681, -10.437011, 56.0, 11.0, 14.0, 0
106635, -0.61608887, 0.17858887, 0.7729492, 12.939452, -84.655754, -10.31494, 57.0, 14.0, 16.0, 0
106657, -0.63830566, 0.19165039, 0.69104004, 11.840819, -87.3413, -10.559081, 57.0, 14.0, 16.0, 0
106679, -0.6520996, 0.19116211, 0.66674805, -1.4038085, -93.26171, -12.20703, 57.0, 14.0, 16.0, 0
106697, -0.7077637, 0.15979004, 0.71569824, -5.4931636, -93.87206, -12.20703, 57.0, 14.0, 16.0, 0
106719, -0.76623535, 0.119018555, 0.75439453, 1.7700194, -89.11132, -11.413573, 57.0, 14.0, 16.0, 0
106737, -0.7967529, 0.14685059, 0.74072266, 13.793944, -83.06884, -10.986327, 56.0, 12.0, 10.0, 0
106761, -0.82092285, 0.20483398, 0.6717529, 18.188477, -76.293945, -10.986327, 56.0, 12.0, 10.0, 0
106783, -0.8149414, 0.15112305, 0.63635254, -3.0517576, -70.43457, -9.338379, 56.0, 12.0, 10.0, 0
106804, -0.8178711, 0.13781738, 0.6566162, -9.399414, -66.467285, -8.117676, 56.0, 12.0, 10.0, 0
106826, -0.82092285, 0.14953613, 0.642334, -5.7983394, -63.232418, -7.202148, 53.0, 10.0, 6.0, 0
106851, -0.8300781, 0.17163086, 0.6225586, -7.202148, -61.157223, -7.3852534, 53.0, 10.0, 6.0, 0
106872, -0.8173828, 0.19677734, 0.57751465, -9.033203, -61.70654, -6.7138667, 53.0, 10.0, 6.0, 0
106890, -0.7965088, 0.19628906, 0.55651855, -8.300781, -61.767574, -6.347656, 53.0, 10.0, 6.0, 0
106913, -0.81640625, 0.17700195, 0.55126953, -8.850098, -59.93652, -7.0190425, 53.0, 10.0, 6.0, 0
106935, -0.8453369, 0.22497559, 0.53796387, -5.981445, -57.189938, -9.765625, 59.0, 13.0, 4.0, 0
106958, -0.85754395, 0.2557373, 0.49523926, -2.0751953, -57.006832, -10.742187, 59.0, 13.0, 4.0, 0
106976, -0.8684082, 0.25756836, 0.44360352, 1.0375977, -58.105465, -8.911133, 59.0, 13.0, 4.0, 0
106998, -0.8984375, 0.23510742, 0.45166016, 3.0517576, -55.114742, -7.8124995, 59.0, 13.0, 4.0, 0
107020, -0.90197754, 0.22949219, 0.4494629, 3.4790037, -53.100582, -8.117676, 58.0, 14.0, 10.0, 0
107044, -0.8886719, 0.2446289, 0.40759277, 2.319336, -51.086422, -9.277344, 58.0, 14.0, 10.0, 0
107089, -0.9063721, 0.23815918, 0.37036133, -0.5493164, -47.546383, -8.483887, 58.0, 14.0, 10.0, 0
107105, -0.91638184, 0.24902344, 0.36193848, 3.601074, -45.593258, -9.765625, 58.0, 14.0, 10.0, 0
107122, -0.9316406, 0.22302246, 0.36010742, 4.211426, -43.701168, -9.399414, 56.0, 6.0, 2.0, 0
107146, -0.9415283, 0.20202637, 0.34448242, 4.4555664, -41.320797, -7.8735347, 56.0, 6.0, 2.0, 0
107165, -0.94873047, 0.19702148, 0.3215332, 6.347656, -38.269043, -5.9204097, 56.0, 6.0, 2.0, 0
107188, -0.9466553, 0.20385742, 0.31628418, 6.408691, -33.75244, -4.8828125, 56.0, 6.0, 2.0, 0
107206, -0.9300537, 0.21643066, 0.30407715, 4.272461, -30.33447, -3.4179685, 56.0, 6.0, 2.0, 0
107223, -0.91381836, 0.22277832, 0.27514648, 1.2207031, -27.526854, -1.4038085, 59.0, 9.0, 11.0, 0
107247, -0.9024658, 0.25256348, 0.2607422, -4.8828125, -24.53613, -1.7089843, 59.0, 9.0, 11.0, 0
107265, -0.9058838, 0.29516602, 0.2668457, -5.187988, -24.353025, -2.9296873, 59.0, 9.0, 11.0, 0
107287, -0.93969727, 0.25915527, 0.28515625, -1.159668, -24.353025, -2.0751953, 59.0, 9.0, 11.0, 0
107309, -0.9605713, 0.22509766, 0.28173828, 1.586914, -23.193357, -1.7700194, 59.0, 9.0, 11.0, 0
107327, -0.94104004, 0.24865723, 0.25146484, 4.272461, -22.460936, -2.0141602, 58.0, 10.0, 5.0, 0
107350, -0.921875, 0.27807617, 0.23925781, 2.380371, -22.216795, -3.173828, 58.0, 10.0, 5.0, 0
107369, -0.91467285, 0.27441406, 0.25390625, 1.7700194, -22.583006, -2.7465818, 58.0, 10.0, 5.0, 0
107390, -0.9222412, 0.2647705, 0.27905273, 5.310058, -23.193357, -2.868652, 58.0, 10.0, 5.0, 0
107413, -0.94421387, 0.24023438, 0.27209473, 7.0190425, -20.324705, -4.272461, 58.0, 10.0, 5.0, 0
107434, -0.9362793, 0.24584961, 0.21130371, 6.6528316, -15.441894, -3.0517576, 56.0, 8.0, 3.0, 0
107457, -0.94091797, 0.2397461, 0.22558594, 4.8217773, -12.145995, -3.234863, 56.0, 8.0, 3.0, 0
107479, -0.9486084, 0.23339844, 0.2619629, 3.234863, -7.8124995, -3.173828, 56.0, 8.0, 3.0, 0
107497, -0.9547119, 0.24084473, 0.28955078, 3.8452146, -1.4038085, -1.9531249, 56.0, 8.0, 3.0, 0
107515, -0.9595947, 0.22937012, 0.28466797, 7.202148, 5.8593745, -0.9155273, 56.0, 8.0, 3.0, 0
107537, -0.9638672, 0.2532959, 0.2767334, 13.305663, 12.451171, -0.18310545, 53.0, 6.0, 5.0, 0
107559, -0.9654541, 0.25170898, 0.29785156, 16.967773, 19.40918, 1.0986328, 53.0, 6.0, 5.0, 0
107583, -0.9589844, 0.2298584, 0.3479004, 18.005371, 26.916502, 3.9062498, 53.0, 6.0, 5.0, 0
107605, -0.9671631, 0.25317383, 0.38464355, 27.160643, 37.597656, 8.361816, 53.0, 6.0, 5.0, 0
107623, -0.9663086, 0.24938965, 0.3618164, 31.98242, 43.090816, 9.887695, 53.0, 6.0, 5.0, 0
107645, -0.95043945, 0.23266602, 0.33642578, 28.503416, 45.16601, 10.253905, 56.0, 10.0, 8.0, 0
107663, -0.9610596, 0.24316406, 0.42126465, 11.291503, 55.175777, 9.460449, 56.0, 10.0, 8.0, 0
107686, -0.9711914, 0.22924805, 0.4633789, 11.9018545, 59.509274, 9.58252, 56.0, 10.0, 8.0, 0
107703, -0.9781494, 0.21960449, 0.4650879, 29.479979, 75.13428, 10.375976, 56.0, 10.0, 8.0, 0
107721, -0.9935303, 0.22058105, 0.44787598, 37.353516, 81.237785, 10.620116, 59.0, 13.0, 8.0, 0
107748, -0.94470215, 0.17211914, 0.40197754, 33.87451, 91.97997, 13.427733, 59.0, 13.0, 8.0, 0
107773, -0.9388428, 0.14086914, 0.5300293, 12.695312, 94.604485, 16.052246, 59.0, 13.0, 8.0, 0
107795, -0.9692383, 0.111083984, 0.63098145, 8.483887, 106.933586, 20.50781, 59.0, 13.0, 8.0, 0
107813, -0.9688721, 0.10168457, 0.6118164, 7.690429, 110.7788, 20.690916, 59.0, 13.0, 8.0, 0
107834, -0.94055176, 0.1619873, 0.5657959, 6.5307612, 115.1123, 16.967773, 56.0, 10.0, 11.0, 0
107857, -0.8796387, 0.16674805, 0.62438965, 11.596679, 117.73681, 17.944336, 56.0, 10.0, 11.0, 0
107878, -0.8720703, 0.107543945, 0.6921387, 2.9296873, 122.61962, 21.606443, 56.0, 10.0, 11.0, 0
107899, -0.8691406, 0.11218262, 0.72302246, -17.76123, 128.96729, 20.202635, 56.0, 10.0, 11.0, 0
107921, -0.8371582, 0.16906738, 0.71520996, -25.695799, 133.54492, 14.587401, 56.0, 10.0, 11.0, 0
107940, -0.78686523, 0.18041992, 0.72473145, -20.690916, 135.43701, 14.09912, 53.0, 10.0, 14.0, 0
107964, -0.7508545, 0.17822266, 0.74694824, -22.094725, 135.68115, 15.0146475, 53.0, 10.0, 14.0, 0
107980, -0.72229004, 0.16918945, 0.79248047, -31.127928, 135.19287, 12.939452, 53.0, 10.0, 14.0, 0
108004, -0.70336914, 0.18457031, 0.8405762, -29.663084, 137.26807, 9.94873, 53.0, 10.0, 14.0, 0
108031, -0.6347656, 0.21240234, 0.81677246, -8.178711, 139.52637, 4.211426, 52.0, 13.0, 17.0, 0
108057, -0.5484619, 0.1899414, 0.85791016, -1.0986328, 137.146, 2.6245115, 52.0, 13.0, 17.0, 0
108077, -0.5313721, 0.15844727, 0.91625977, -9.094238, 138.5498, 2.4414062, 52.0, 13.0, 17.0, 0
108099, -0.49938965, 0.18640137, 0.90686035, -11.596679, 139.03809, 0.48828122, 52.0, 13.0, 17.0, 0
108117, -0.44921875, 0.21594238, 0.8848877, -2.380371, 139.09912, -3.1127927, 52.0, 13.0, 17.0, 0
108141, -0.39111328, 0.19921875, 0.8937988, 10.009766, 137.26807, -1.5258788, 54.0, 9.0, 18.0, 0
108164, -0.32385254, 0.13598633, 0.9481201, 8.361816, 135.13184, 4.0893555, 54.0, 9.0, 18.0, 0
108190, -0.2845459, 0.15612793, 0.9543457, -0.793457, 135.2539, 2.7465818, 54.0, 9.0, 18.0, 0
108211, -0.24133301, 0.19677734, 0.93395996, 1.8310546, 135.62012, 0.48828122, 54.0, 9.0, 18.0, 0
108229, -0.18188477, 0.18261719, 0.89868164, 7.8735347, 132.75146, 1.9531249, 54.0, 7.0, 19.0, 0
108258, -0.09643555, 0.14099121, 0.9034424, 7.0190425, 128.72314, 4.1503906, 54.0, 7.0, 19.0, 0
108278, -0.032714844, 0.15783691, 0.89294434, 6.347656, 127.868645, 3.4179685, 54.0, 7.0, 19.0, 0
108298, 0.010620117, 0.1619873, 0.8964844, 2.868652, 123.16894, 2.2583008, 54.0, 7.0, 19.0, 0
108320, 0.035888672, 0.11437988, 0.9050293, 1.5258788, 119.68993, 5.981445, 54.0, 7.0, 19.0, 0
108338, 0.07373047, 0.12841797, 0.8869629, 4.5166016, 115.47851, 7.7514644, 56.0, 5.0, 25.0, 0
108362, 0.111328125, 0.18566895, 0.8798828, 18.249512, 112.731926, 4.8217773, 56.0, 5.0, 25.0, 0
108407, 0.20385742, 0.14440918, 0.8590088, 4.8828125, 105.10253, 7.568359, 56.0, 5.0, 25.0, 0
108425, 0.26416016, 0.15905762, 0.8383789, 7.93457, 101.44042, 6.2866206, 56.0, 2.0, 28.0, 0
108454, 0.31530762, 0.18408203, 0.8486328, 18.981934, 98.388664, 5.187988, 56.0, 2.0, 28.0, 0
108474, 0.31359863, 0.1652832, 0.8486328, 23.498533, 95.82519, 7.690429, 56.0, 2.0, 28.0, 0
108495, 0.35913086, 0.15136719, 0.81884766, 8.239746, 90.576164, 9.277344, 56.0, 2.0, 28.0, 0
108515, 0.4173584, 0.15795898, 0.7886963, 3.1127927, 86.914055, 7.5073237, 56.0, 2.0, 28.0, 0
108533, 0.4345703, 0.14892578, 0.7844238, 4.699707, 86.05956, 6.5917964, 55.0, 1.0, 30.0, 0
108562, 0.48046875, 0.14587402, 0.79663086, 13.0615225, 83.55712, 5.8593745, 55.0, 1.0, 30.0, 0
108580, 0.5, 0.1730957, 0.80493164, 19.348145, 80.749504, 5.310058, 55.0, 1.0, 30.0, 0
108599, 0.5008545, 0.123168945, 0.7897949, 19.53125, 79.711914, 6.5917964, 55.0, 1.0, 30.0, 0
108619, 0.5463867, 0.1303711, 0.74108887, 13.122558, 77.45361, 6.1645503, 55.0, 1.0, 30.0, 0
108637, 0.5834961, 0.10681152, 0.70739746, 6.2255855, 74.46289, 6.469726, 54.0, 1.0, 33.0, 0
108661, 0.6125488, 0.07788086, 0.7071533, 0.18310545, 72.32666, 8.361816, 54.0, 1.0, 33.0, 0
108679, 0.62231445, 0.13647461, 0.71569824, 4.8828125, 73.18115, 6.835937, 54.0, 1.0, 33.0, 0
108696, 0.6430664, 0.13574219, 0.70092773, 9.155273, 71.22803, 7.0190425, 54.0, 1.0, 33.0, 0
108722, 0.66760254, 0.14489746, 0.66674805, 8.300781, 67.19971, 8.7890625, 49.0, -6.0, 32.0, 0
108749, 0.68969727, 0.11462402, 0.6657715, 7.0800776, 67.26074, 6.5307612, 49.0, -6.0, 32.0, 0
108771, 0.7145996, 0.14074707, 0.60302734, 0.5493164, 64.27002, 5.249023, 49.0, -6.0, 32.0, 0
108793, 0.73498535, 0.16711426, 0.5871582, -5.4321284, 60.79101, 4.211426, 49.0, -6.0, 32.0, 0
108811, 0.7303467, 0.14453125, 0.6072998, -8.178711, 60.66894, 1.586914, 49.0, -6.0, 32.0, 0
108835, 0.7429199, 0.15722656, 0.61364746, -3.173828, 60.729977, -1.7700194, 50.0, -7.0, 34.0, 0
108858, 0.7857666, 0.17749023, 0.59887695, 14.404296, 58.105465, -0.97656244, 50.0, -7.0, 34.0, 0
108881, 0.7800293, 0.15808105, 0.54748535, 10.375976, 55.053707, -2.807617, 50.0, -7.0, 34.0, 0
108899, 0.79467773, 0.1352539, 0.520874, -4.9438477, 51.574703, -2.0751953, 50.0, -7.0, 34.0, 0
108918, 0.8261719, 0.11975098, 0.5181885, -12.817382, 51.086422, -3.3569334, 50.0, -7.0, 34.0, 0
108941, 0.8317871, 0.14172363, 0.5169678, -3.601074, 52.062984, -5.5541987, 52.0, -8.0, 34.0, 0
108963, 0.8425293, 0.17077637, 0.48327637, 14.22119, 49.377438, -4.699707, 52.0, -8.0, 34.0, 0
108986, 0.8425293, 0.125, 0.45922852, 15.99121, 45.471188, -3.5400388, 52.0, -8.0, 34.0, 0
109007, 0.85302734, 0.103027344, 0.45715332, 4.333496, 40.52734, -1.8310546, 52.0, -8.0, 34.0, 0
109028, 0.86169434, 0.11315918, 0.4399414, 5.615234, 39.245605, -2.7465818, 50.0, -13.0, 32.0, 0
109054, 0.85595703, 0.10961914, 0.45324707, 8.544922, 36.8042, -2.0751953, 50.0, -13.0, 32.0, 0
109073, 0.8586426, 0.12158203, 0.44763184, 13.000487, 34.484863, -1.4648436, 50.0, -13.0, 32.0, 0
109095, 0.87597656, 0.09838867, 0.43103027, 7.93457, 30.700682, -0.7324218, 50.0, -13.0, 32.0, 0
109117, 0.87268066, 0.0925293, 0.42590332, 0.3662109, 29.052732, -0.24414061, 50.0, -13.0, 32.0, 0
109140, 0.8736572, 0.12451172, 0.4025879, 0.48828122, 27.282713, -0.24414061, 50.0, -15.0, 31.0, 0
109162, 0.8745117, 0.13989258, 0.38879395, 8.605957, 24.04785, 1.159668, 50.0, -15.0, 31.0, 0
109185, 0.90319824, 0.12841797, 0.4005127, 15.136718, 24.719236, -0.3662109, 50.0, -15.0, 31.0, 0
109200, 0.895874, 0.11669922, 0.38952637, 13.000487, 23.742674, -1.5258788, 50.0, -15.0, 31.0, 0
109218, 0.9046631, 0.119506836, 0.35876465, 7.0190425, 20.38574, -1.7700194, 50.0, -15.0, 31.0, 0
109240, 0.90966797, 0.11291504, 0.3585205, 4.272461, 18.981934, -3.7231443, 50.0, -15.0, 36.0, 0
109266, 0.9160156, 0.10961914, 0.37780762, 6.408691, 17.63916, -3.6621091, 50.0, -15.0, 36.0, 0
109284, 0.9169922, 0.11193848, 0.37817383, 10.620116, 16.296387, -3.0517576, 50.0, -15.0, 36.0, 0
109303, 0.91308594, 0.1295166, 0.36499023, 9.277344, 15.86914, -3.3569334, 50.0, -15.0, 36.0, 0
109326, 0.9300537, 0.13024902, 0.3116455, -3.0517576, 10.925292, -4.5166016, 53.0, -14.0, 33.0, 0
109346, 0.9265137, 0.099487305, 0.33398438, -6.1645503, 9.521484, -3.2958982, 53.0, -14.0, 33.0, 0
